Subj,List,BLOCK,TRIAL,SET,LC,CatNumber,Category,PicID,TARGET,Response,Accuracy,RT
4,5,1,1,3,CRel,10,clothes,dress.png,Lanst,Lanst,1,807
4,5,1,2,2,CRel,3,vegetables,onion.png,Troschel,Troschel,1,681
4,5,1,3,1,UnRel,4,musical instruments,drum.png,Fente,Fente,1,677
4,5,1,4,1,CRel,7,transportation,train.png,Melg,Melg,1,757
4,5,1,5,1,UnRel,14,electronic devices,printer.png,Jersch,Jersch,1,715
4,5,1,6,3,UnRel,2,tools,ax.png,Flipse,Flipse,1,824
4,5,1,7,3,CRel,10,clothes,coat.png,Dilpe,Dilpe,1,979
4,5,1,8,2,UnRel,13,insects,beetle.png,Lember,Lember,1,866
4,5,1,9,3,UnRel,8,human head,ear.png,Glutz,Glutz,1,920
4,5,1,10,1,CRel,7,transportation,bus.png,Jorn,Jorn,1,832
4,5,1,11,2,CRel,3,vegetables,tomato.png,Schinz,Schinz,1,1532
4,5,1,12,3,CRel,10,clothes,trousers.png,Glienst,Glienst,1,712
4,5,2,13,2,UnRel,12,shapes,trapeze.png,Quippe,Quippe,1,685
4,5,2,14,2,UnRel,9,drinks,milk.png,Bift,Bift,1,782
4,5,2,15,1,CRel,7,transportation,ship.png,Pramme,Pramme,1,819
4,5,2,16,2,CRel,3,vegetables,potato.png,Rullner,Rullner,1,723
4,5,2,17,3,CRel,10,clothes,skirt.png,Huspel,Huspel,1,916
4,5,2,18,1,UnRel,1,animals,horse.png,Rafke,Rafke,1,585
4,5,2,19,3,UnRel,5,fruit,banana.png,Limme,Limme,1,757
4,5,2,20,1,CRel,7,transportation,car.png,Wefer,Wefer,1,694
4,5,2,21,1,UnRel,15,plants,moss.png,Zwilk,Zwilk,1,1121
4,5,2,22,2,CRel,3,vegetables,cucumber.png,Lepf,Lepf,1,769
4,5,2,23,3,UnRel,11,tableware,glass.png,Randel,Randel,1,803
4,5,2,24,2,UnRel,6,furniture,cupboard.png,Gremt,Gremt,1,948
5,5,1,1,3,CRel,10,clothes,dress.png,Lanst,Lanst,1,832
5,5,1,2,2,CRel,3,vegetables,onion.png,Troschel,Troschel,1,853
5,5,1,3,1,UnRel,4,musical instruments,drum.png,Fente,Fente,1,698
5,5,1,4,1,CRel,7,transportation,train.png,Melg,Melg,1,815
5,5,1,5,1,UnRel,14,electronic devices,printer.png,Jersch,Jersch,1,677
5,5,1,6,3,UnRel,2,tools,ax.png,Flipse,Flipse,1,824
5,5,1,7,3,CRel,10,clothes,coat.png,Dilpe,Dilpe,1,1654
5,5,1,8,2,UnRel,13,insects,beetle.png,Lember,Lember,1,744
5,5,1,9,3,UnRel,8,human head,ear.png,Glutz,Glutz,1,798
5,5,1,10,1,CRel,7,transportation,bus.png,Jorn,Jorn,1,819
5,5,1,11,2,CRel,3,vegetables,tomato.png,Schinz,Schinz,1,811
5,5,1,12,3,CRel,10,clothes,trousers.png,Glienst,Glienst,1,602
5,5,2,13,2,UnRel,12,shapes,trapeze.png,Quippe,Quippe,1,828
5,5,2,14,2,UnRel,9,drinks,milk.png,Bift,Bift,1,849
5,5,2,15,1,CRel,7,transportation,ship.png,Pramme,Pramme,1,757
5,5,2,16,2,CRel,3,vegetables,potato.png,Rullner,Rullner,1,522
5,5,2,17,3,CRel,10,clothes,skirt.png,Huspel,Huspel,1,782
5,5,2,18,1,UnRel,1,animals,horse.png,Rafke,Rafke,1,908
5,5,2,19,3,UnRel,5,fruit,banana.png,Limme,Limme,1,782
5,5,2,20,1,CRel,7,transportation,car.png,Wefer,Wefer,1,752
5,5,2,21,1,UnRel,15,plants,moss.png,Zwilk,Zwilk,1,891
5,5,2,22,2,CRel,3,vegetables,cucumber.png,Lepf,Lepf,1,744
5,5,2,23,3,UnRel,11,tableware,glass.png,Randel,Randel,1,1000
5,5,2,24,2,UnRel,6,furniture,cupboard.png,Gremt,Gremt,1,769
6,3,1,1,2,UnRel,10,clothes,skirt.png,Huspel,Huspel,1,811
6,3,1,2,3,CRel,12,shapes,diamond.png,Brähme,Brähme,1,689
6,3,1,3,3,UnRel,1,animals,dog.png,Jasel,Jasel,1,484
6,3,1,4,1,CRel,14,electronic devices,mobile.png,Rumfe,Rumfe,1,673
6,3,1,5,2,CRel,15,plants,tree.png,Gille,Gille,1,606
6,3,1,6,2,UnRel,9,drinks,water.png,Dimst,Dimst,1,694
6,3,1,7,2,UnRel,6,furniture,bed.png,Kansche,Kansche,1,647
6,3,1,8,1,UnRel,5,fruit,pear.png,Nork,Nork,1,761
6,3,1,9,1,CRel,14,electronic devices,camera.png,Zolge,Zolge,1,782
6,3,1,10,2,CRel,15,plants,moss.png,Zwilk,Zwilk,1,752
6,3,1,11,3,CRel,12,shapes,trapeze.png,Quippe,Quippe,1,857
6,3,1,12,2,UnRel,13,insects,dragonfly.png,Schmorp,Schmorp,1,619
6,3,2,13,3,UnRel,3,vegetables,potato.png,Rullner,Rullner,1,727
6,3,2,14,3,UnRel,4,musical instruments,violin.png,Wimsch,Wimsch,1,606
6,3,2,15,2,CRel,15,plants,cactus.png,Derg,Derg,1,694
6,3,2,16,1,UnRel,7,transportation,ship.png,Pramme,Pramme,1,706
6,3,2,17,1,CRel,14,electronic devices,computer.png,Merst,Merst,1,656
6,3,2,18,3,UnRel,11,tableware,cup.png,Knirs,Knirs,1,769
6,3,2,19,3,CRel,12,shapes,circle.png,Trulf,Trulf,1,1230
6,3,2,20,2,CRel,15,plants,flower.png,Milster,Milster,1,748
6,3,2,21,1,UnRel,8,human head,mouth.png,Zürme,Zürme,1,786
6,3,2,22,1,CRel,14,electronic devices,printer.png,Jersch,Jersch,1,807
6,3,2,23,1,UnRel,2,tools,saw.png,Klüffe,Klü...Klüffe,0,719
6,3,2,24,3,CRel,12,shapes,star.png,Prals,Prals,1,1190
8,4,1,1,2,CRel,6,furniture,chair.png,Berne,Berne,1,1172
8,4,1,2,3,UnRel,15,plants,flower.png,Milster,Milster,1,706
8,4,1,3,2,UnRel,1,animals,cow.png,Ploft,Ploft,1,773
8,4,1,4,3,CRel,13,insects,butterfly.png,Wulge,Wulge,1,949
8,4,1,5,1,CRel,9,drinks,coffee.png,Nimse,Nimse,1,798
8,4,1,6,2,CRel,6,furniture,table.png,Rixt,Rixt,1,673
8,4,1,7,1,UnRel,12,shapes,circle.png,Trulf,Trulf,1,727
8,4,1,8,1,UnRel,8,human head,nose.png,Wirs,Wirs,1,752
8,4,1,9,3,UnRel,11,tableware,bowl.png,Glemp,Glemp,1,1038
8,4,1,10,3,CRel,13,insects,fly.png,Gulch,Gulch,1,1105
8,4,1,11,1,UnRel,3,vegetables,cucumber.png,Lepf,Lepf,1,1214
8,4,1,12,2,UnRel,7,transportation,train.png,Melg,Melg,1,833
8,4,2,13,1,CRel,9,drinks,tea.png,Mönnel,Mönnel,1,815
8,4,2,14,1,UnRel,2,tools,pliers.png,Scholk,Scholk,1,757
8,4,2,15,3,UnRel,10,clothes,dress.png,Lanst,Lanst,1,777
8,4,2,16,3,CRel,13,insects,dragonfly.png,Schmorp,Schmorp,1,1256
8,4,2,17,2,CRel,6,furniture,cupboard.png,Gremt,Grempt,0,2514
8,4,2,18,1,CRel,9,drinks,water.png,Dimst,Dimst,1,1499
8,4,2,19,2,UnRel,5,fruit,orange.png,Amst,Amst,1,903
8,4,2,20,3,UnRel,4,musical instruments,piano.png,Mirge,Mirge,1,1042
8,4,2,21,2,UnRel,14,electronic devices,camera.png,Zolge,Zolge,1,979
8,4,2,22,3,CRel,13,insects,beetle.png,Lember,Lember,1,2325
8,4,2,23,1,CRel,9,drinks,milk.png,Bift,Bift,1,983
8,4,2,24,2,CRel,6,furniture,bed.png,Kansche,Kansche,1,712
9,2,1,1,3,CRel,11,tableware,bowl.png,Glemp,Glemp,1,1168
9,2,1,2,1,CRel,1,animals,cat.png,Marp,Marp,1,866
9,2,1,3,1,UnRel,15,plants,cactus.png,Derg,Derg,1,878
9,2,1,4,2,CRel,8,human head,eye.png,Limfer,Limfer,1,845
9,2,1,5,2,UnRel,2,tools,hammer.png,Jund,Jund,1,1021
9,2,1,6,2,UnRel,3,vegetables,tomato.png,Schinz,Schinz,1,874
9,2,1,7,3,CRel,11,tableware,glass.png,Randel,Randel,1,920
9,2,1,8,1,UnRel,7,transportation,bus.png,Jorn,Jorn,1,786
9,2,1,9,1,CRel,1,animals,horse.png,Rafke,Rafke,1,1348
9,2,1,10,2,CRel,8,human head,ear.png,Glutz,Glutz,1,899
9,2,1,11,1,UnRel,12,shapes,star.png,Prals,Prals,1,887
9,2,1,12,3,CRel,11,tableware,plate.png,Schrenge,Schrenge,1,960
9,2,2,13,3,UnRel,6,furniture,chair.png,Berne,Berne,1,1708
9,2,2,14,2,UnRel,4,musical instruments,guitar.png,Zort,Zort,1,845
9,2,2,15,3,UnRel,14,electronic devices,computer.png,Merst,Merst,1,769
9,2,2,16,1,UnRel,9,drinks,coffee.png,Nimse,Nimse,1,924
9,2,2,17,2,CRel,8,human head,mouth.png,Zürme,Zürme,1,1147
9,2,2,18,1,CRel,1,animals,cow.png,Ploft,Ploft,1,1230
9,2,2,19,3,UnRel,10,clothes,coat.png,Dilpe,Dilpe,1,1075
9,2,2,20,2,UnRel,13,insects,fly.png,Gulch,Gulch,1,1058
9,2,2,21,3,CRel,11,tableware,cup.png,Knirs,Knirs,1,836
9,2,2,22,3,UnRel,5,fruit,apple.png,Glürre,Glürre,1,903
9,2,2,23,1,CRel,1,animals,dog.png,Jasel,Jasel,1,954
9,2,2,24,2,CRel,8,human head,nose.png,Wirs,Wirs,1,879
10,4,1,1,2,CRel,6,furniture,chair.png,Berne,Berne,1,773
10,4,1,2,3,UnRel,15,plants,flower.png,Milster,Milster,1,736
10,4,1,3,2,UnRel,1,animals,cow.png,Ploft,Ploft,1,778
10,4,1,4,3,CRel,13,insects,butterfly.png,Wulge,Wulge,1,660
10,4,1,5,1,CRel,9,drinks,coffee.png,Nimse,Nimse,1,656
10,4,1,6,2,CRel,6,furniture,table.png,Rixt,Rixt,1,685
10,4,1,7,1,UnRel,12,shapes,circle.png,Trulf,Trulf,1,1398
10,4,1,8,1,UnRel,8,human head,nose.png,Wirs,Wirs,1,748
10,4,1,9,3,UnRel,11,tableware,bowl.png,Glemp,Glemp,1,962
10,4,1,10,3,CRel,13,insects,fly.png,Gulch,Gulch,1,677
10,4,1,11,1,UnRel,3,vegetables,cucumber.png,Lepf,Lepf,1,715
10,4,1,12,2,UnRel,7,transportation,train.png,Melg,Melg,1,890
10,4,2,13,1,CRel,9,drinks,tea.png,Mönnel,Mönnel,1,836
10,4,2,14,1,UnRel,2,tools,pliers.png,Scholk,Scholk,1,887
10,4,2,15,3,UnRel,10,clothes,dress.png,Lanst,Lanst,1,740
10,4,2,16,3,CRel,13,insects,dragonfly.png,Schmorp,Schmorp,1,681
10,4,2,17,2,CRel,6,furniture,cupboard.png,Gremt,Gremt,1,1071
10,4,2,18,1,CRel,9,drinks,water.png,Dimst,Dimst,1,773
10,4,2,19,2,UnRel,5,fruit,orange.png,Amst,Amst,1,757
10,4,2,20,3,UnRel,4,musical instruments,piano.png,Mirge,Mirge,1,1033
10,4,2,21,2,UnRel,14,electronic devices,camera.png,Zolge,Zolge,1,878
10,4,2,22,3,CRel,13,insects,beetle.png,Lember,Lember,1,719
10,4,2,23,1,CRel,9,drinks,milk.png,Bift,Bift,1,857
10,4,2,24,2,CRel,6,furniture,bed.png,Kansche,Kansche,1,758
11,2,1,1,3,CRel,11,tableware,bowl.png,Glemp,Glemp,1,643
11,2,1,2,1,CRel,1,animals,cat.png,Marp,Marp,1,572
11,2,1,3,1,UnRel,15,plants,cactus.png,Derg,Derg,1,694
11,2,1,4,2,CRel,8,human head,eye.png,Limfer,Limfer,1,639
11,2,1,5,2,UnRel,2,tools,hammer.png,Jund,Jund,1,681
11,2,1,6,2,UnRel,3,vegetables,tomato.png,Schinz,Schinz,1,631
11,2,1,7,3,CRel,11,tableware,glass.png,Randel,Randel,1,647
11,2,1,8,1,UnRel,7,transportation,bus.png,Jorn,Jorn,1,601
11,2,1,9,1,CRel,1,animals,horse.png,Rafke,Rafke,1,702
11,2,1,10,2,CRel,8,human head,ear.png,Glutz,Glutz,1,727
11,2,1,11,1,UnRel,12,shapes,star.png,Prals,Prals,1,618
11,2,1,12,3,CRel,11,tableware,plate.png,Schrenge,Schrenge,1,637
11,2,2,13,3,UnRel,6,furniture,chair.png,Berne,Berne,1,681
11,2,2,14,2,UnRel,4,musical instruments,guitar.png,Zort,Zort,1,723
11,2,2,15,3,UnRel,14,electronic devices,computer.png,Merst,Merst,1,685
11,2,2,16,1,UnRel,9,drinks,coffee.png,Nimse,Nimse,1,618
11,2,2,17,2,CRel,8,human head,mouth.png,Zürme,Zürme,1,778
11,2,2,18,1,CRel,1,animals,cow.png,Ploft,Ploft,1,685
11,2,2,19,3,UnRel,10,clothes,coat.png,Dilpe,Dilpe,1,702
11,2,2,20,2,UnRel,13,insects,fly.png,Gulch,Gulch,1,715
11,2,2,21,3,CRel,11,tableware,cup.png,Knirs,Knirs,1,845
11,2,2,22,3,UnRel,5,fruit,apple.png,Glürre,Glürre,1,891
11,2,2,23,1,CRel,1,animals,dog.png,Jasel,Jasel,1,618
11,2,2,24,2,CRel,8,human head,nose.png,Wirs,Wirs,1,1265
12,2,1,1,3,CRel,11,tableware,bowl.png,Glemp,Gulpe,0,1268
12,2,1,2,1,CRel,1,animals,cat.png,Marp,Marp,1,740
12,2,1,3,1,UnRel,15,plants,cactus.png,Derg,Derg,1,1113
12,2,1,4,2,CRel,8,human head,eye.png,Limfer,Limfer,1,727
12,2,1,5,2,UnRel,2,tools,hammer.png,Jund,Jund,1,1054
12,2,1,6,2,UnRel,3,vegetables,tomato.png,Schinz,Schinz,1,1226
12,2,1,7,3,CRel,11,tableware,glass.png,Randel,Randel,1,782
12,2,1,8,1,UnRel,7,transportation,bus.png,Jorn,Junn,0,1155
12,2,1,9,1,CRel,1,animals,horse.png,Rafke,Rafke,1,698
12,2,1,10,2,CRel,8,human head,ear.png,Glutz,Glutz,1,3612
12,2,1,11,1,UnRel,12,shapes,star.png,Prals,Prals,1,1188
12,2,1,12,3,CRel,11,tableware,plate.png,Schrenge,Schrenge,1,1951
12,2,2,13,3,UnRel,6,furniture,chair.png,Berne,Berne,1,2015
12,2,2,14,2,UnRel,4,musical instruments,guitar.png,Zort,Zort,1,1079
12,2,2,15,3,UnRel,14,electronic devices,computer.png,Merst,Merst,1,937
12,2,2,16,1,UnRel,9,drinks,coffee.png,Nimse,Nimse,1,1025
12,2,2,17,2,CRel,8,human head,mouth.png,Zürme,Zürme,1,719
12,2,2,18,1,CRel,1,animals,cow.png,Ploft,Ploft,1,899
12,2,2,19,3,UnRel,10,clothes,coat.png,Dilpe,Dilpe,1,1298
12,2,2,20,2,UnRel,13,insects,fly.png,Gulch,Gulch,1,1625
12,2,2,21,3,CRel,11,tableware,cup.png,Knirs,Knirs,1,1214
12,2,2,22,3,UnRel,5,fruit,apple.png,Glürre,NA,0,-1
12,2,2,23,1,CRel,1,animals,dog.png,Jasel,Jasel,1,941
12,2,2,24,2,CRel,8,human head,nose.png,Wirs,Wirs,1,2805
15,2,1,1,3,CRel,11,tableware,bowl.png,Glemp,Glemp,1,819
15,2,1,2,1,CRel,1,animals,cat.png,Marp,Marp,1,631
15,2,1,3,1,UnRel,15,plants,cactus.png,Derg,Derg,1,710
15,2,1,4,2,CRel,8,human head,eye.png,Limfer,Limfer,1,677
15,2,1,5,2,UnRel,2,tools,hammer.png,Jund,Jurt,0,1180
15,2,1,6,2,UnRel,3,vegetables,tomato.png,Schinz,Schinz,1,1478
15,2,1,7,3,CRel,11,tableware,glass.png,Randel,Randel,1,933
15,2,1,8,1,UnRel,7,transportation,bus.png,Jorn,Jorn,1,962
15,2,1,9,1,CRel,1,animals,horse.png,Rafke,Rafke,1,660
15,2,1,10,2,CRel,8,human head,ear.png,Glutz,Glutz,1,1012
15,2,1,11,1,UnRel,12,shapes,star.png,Prals,Prals,1,723
15,2,1,12,3,CRel,11,tableware,plate.png,Schrenge,Schrenge,1,700
15,2,2,13,3,UnRel,6,furniture,chair.png,Berne,Berne,1,1071
15,2,2,14,2,UnRel,4,musical instruments,guitar.png,Zort,Zort,1,744
15,2,2,15,3,UnRel,14,electronic devices,computer.png,Merst,Merst,1,757
15,2,2,16,1,UnRel,9,drinks,coffee.png,Nimse,Nimse,1,639
15,2,2,17,2,CRel,8,human head,mouth.png,Zürme,Zürme,1,916
15,2,2,18,1,CRel,1,animals,cow.png,Ploft,Ploft,1,752
15,2,2,19,3,UnRel,10,clothes,coat.png,Dilpe,Dilpe,1,815
15,2,2,20,2,UnRel,13,insects,fly.png,Gulch,Gulch,1,740
15,2,2,21,3,CRel,11,tableware,cup.png,Knirs,Knirs,1,752
15,2,2,22,3,UnRel,5,fruit,apple.png,Glürre,Glürre,1,819
15,2,2,23,1,CRel,1,animals,dog.png,Jasel,Jasel,1,891
15,2,2,24,2,CRel,8,human head,nose.png,Wirs,Wirs,1,746
16,4,1,1,2,CRel,6,furniture,chair.png,Berne,Berne,1,1289
16,4,1,2,3,UnRel,15,plants,flower.png,Milster,Milster,1,740
16,4,1,3,2,UnRel,1,animals,cow.png,Ploft,Ploft,1,1050
16,4,1,4,3,CRel,13,insects,butterfly.png,Wulge,Wulge,1,807
16,4,1,5,1,CRel,9,drinks,coffee.png,Nimse,Nimse,1,790
16,4,1,6,2,CRel,6,furniture,table.png,Rixt,Rixt,1,861
16,4,1,7,1,UnRel,12,shapes,circle.png,Trulf,Trulf,1,786
16,4,1,8,1,UnRel,8,human head,nose.png,Wirs,Wirs,1,773
16,4,1,9,3,UnRel,11,tableware,bowl.png,Glemp,Glemp,1,778
16,4,1,10,3,CRel,13,insects,fly.png,Gulch,Gulch,1,744
16,4,1,11,1,UnRel,3,vegetables,cucumber.png,Lepf,Lepf,1,874
16,4,1,12,2,UnRel,7,transportation,train.png,Melg,Melg,1,752
16,4,2,13,1,CRel,9,drinks,tea.png,Mönnel,Mönnel,1,610
16,4,2,14,1,UnRel,2,tools,pliers.png,Scholk,Scholk,1,631
16,4,2,15,3,UnRel,10,clothes,dress.png,Lanst,Lanst,1,710
16,4,2,16,3,CRel,13,insects,dragonfly.png,Schmorp,Schmorp,1,731
16,4,2,17,2,CRel,6,furniture,cupboard.png,Gremt,Glemp...Grempt,0,811
16,4,2,18,1,CRel,9,drinks,water.png,Dimst,Dimst,1,1360
16,4,2,19,2,UnRel,5,fruit,orange.png,Amst,Amst,1,794
16,4,2,20,3,UnRel,4,musical instruments,piano.png,Mirge,Mirge,1,1516
16,4,2,21,2,UnRel,14,electronic devices,camera.png,Zolge,Zolge,1,1272
16,4,2,22,3,CRel,13,insects,beetle.png,Lember,Lember,1,1012
16,4,2,23,1,CRel,9,drinks,milk.png,Bift,Bift,1,836
16,4,2,24,2,CRel,6,furniture,bed.png,Kansche,Kansche,1,787
17,5,1,1,3,CRel,10,clothes,dress.png,Lanst,Lanst,1,736
17,5,1,2,2,CRel,3,vegetables,onion.png,Troschel,Troschel,1,606
17,5,1,3,1,UnRel,4,musical instruments,drum.png,Fente,Fente,1,589
17,5,1,4,1,CRel,7,transportation,train.png,Melg,Melg,1,870
17,5,1,5,1,UnRel,14,electronic devices,printer.png,Jersch,Jersch,1,610
17,5,1,6,3,UnRel,2,tools,ax.png,Flipse,Flipse,1,572
17,5,1,7,3,CRel,10,clothes,coat.png,Dilpe,Dilpe,1,677
17,5,1,8,2,UnRel,13,insects,beetle.png,Lember,Lember,1,580
17,5,1,9,3,UnRel,8,human head,ear.png,Glutz,Glutz,1,643
17,5,1,10,1,CRel,7,transportation,bus.png,Jorn,Jorn,1,958
17,5,1,11,2,CRel,3,vegetables,tomato.png,Schinz,Schinz,1,576
17,5,1,12,3,CRel,10,clothes,trousers.png,Glienst,Glienst,1,654
17,5,2,13,2,UnRel,12,shapes,trapeze.png,Quippe,Quippe,1,694
17,5,2,14,2,UnRel,9,drinks,milk.png,Bift,Bift,1,660
17,5,2,15,1,CRel,7,transportation,ship.png,Pramme,Pramme,1,685
17,5,2,16,2,CRel,3,vegetables,potato.png,Rullner,Rullner,1,610
17,5,2,17,3,CRel,10,clothes,skirt.png,Huspel,Huspel,1,681
17,5,2,18,1,UnRel,1,animals,horse.png,Rafke,Rafke,1,660
17,5,2,19,3,UnRel,5,fruit,banana.png,Limme,Limme,1,685
17,5,2,20,1,CRel,7,transportation,car.png,Wefer,Wefer,1,597
17,5,2,21,1,UnRel,15,plants,moss.png,Zwilk,Zwilk,1,664
17,5,2,22,2,CRel,3,vegetables,cucumber.png,Lepf,Lepf,1,668
17,5,2,23,3,UnRel,11,tableware,glass.png,Randel,Randel,1,627
17,5,2,24,2,UnRel,6,furniture,cupboard.png,Gremt,Gremt,1,740
20,5,1,1,3,CRel,10,clothes,dress.png,Lanst,Lanst,1,1952
20,5,1,2,2,CRel,3,vegetables,onion.png,Troschel,Troschel,1,694
20,5,1,3,1,UnRel,4,musical instruments,drum.png,Fente,Fente,1,924
20,5,1,4,1,CRel,7,transportation,train.png,Melg,Melg,1,836
20,5,1,5,1,UnRel,14,electronic devices,printer.png,Jersch,Jersch,1,811
20,5,1,6,3,UnRel,2,tools,ax.png,Flipse,Flipse,1,1356
20,5,1,7,3,CRel,10,clothes,coat.png,Dilpe,Dilpe,1,819
20,5,1,8,2,UnRel,13,insects,beetle.png,Lember,Lember,1,819
20,5,1,9,3,UnRel,8,human head,ear.png,Glutz,Glutz,1,715
20,5,1,10,1,CRel,7,transportation,bus.png,Jorn,Jorn,1,819
20,5,1,11,2,CRel,3,vegetables,tomato.png,Schinz,Schinz,1,635
20,5,1,12,3,CRel,10,clothes,trousers.png,Glienst,Glienst,1,1156
20,5,2,13,2,UnRel,12,shapes,trapeze.png,Quippe,Quippe,1,736
20,5,2,14,2,UnRel,9,drinks,milk.png,Bift,Bift,1,857
20,5,2,15,1,CRel,7,transportation,ship.png,Pramme,Pramme,1,903
20,5,2,16,2,CRel,3,vegetables,potato.png,Rullner,Rullner,1,878
20,5,2,17,3,CRel,10,clothes,skirt.png,Huspel,Husch...Huspel,0,1109
20,5,2,18,1,UnRel,1,animals,horse.png,Rafke,Rafke,1,777
20,5,2,19,3,UnRel,5,fruit,banana.png,Limme,Limme,1,790
20,5,2,20,1,CRel,7,transportation,car.png,Wefer,Wefer,1,853
20,5,2,21,1,UnRel,15,plants,moss.png,Zwilk,Zwilk,1,1054
20,5,2,22,2,CRel,3,vegetables,cucumber.png,Lepf,Lepf,1,673
20,5,2,23,3,UnRel,11,tableware,glass.png,Randel,Randel,1,979
20,5,2,24,2,UnRel,6,furniture,cupboard.png,Gremt,Gremt,1,810
21,2,1,1,3,CRel,11,tableware,bowl.png,Glemp,Glemp,1,912
21,2,1,2,1,CRel,1,animals,cat.png,Marp,Marp,1,757
21,2,1,3,1,UnRel,15,plants,cactus.png,Derg,Derb,0,996
21,2,1,4,2,CRel,8,human head,eye.png,Limfer,Limfer,1,991
21,2,1,5,2,UnRel,2,tools,hammer.png,Jund,Jund,1,840
21,2,1,6,2,UnRel,3,vegetables,tomato.png,Schinz,Schinz,1,1054
21,2,1,7,3,CRel,11,tableware,glass.png,Randel,Randel,1,933
21,2,1,8,1,UnRel,7,transportation,bus.png,Jorn,Jorn,1,928
21,2,1,9,1,CRel,1,animals,horse.png,Rafke,Rafke,1,1130
21,2,1,10,2,CRel,8,human head,ear.png,Glutz,Glutz,1,1725
21,2,1,11,1,UnRel,12,shapes,star.png,Prals,Prals,1,1302
21,2,1,12,3,CRel,11,tableware,plate.png,Schrenge,Schrenge,1,1046
21,2,2,13,3,UnRel,6,furniture,chair.png,Berne,Berne,1,1587
21,2,2,14,2,UnRel,4,musical instruments,guitar.png,Zort,Zort,1,790
21,2,2,15,3,UnRel,14,electronic devices,computer.png,Merst,Merst,1,975
21,2,2,16,1,UnRel,9,drinks,coffee.png,Nimse,Nimse,1,908
21,2,2,17,2,CRel,8,human head,mouth.png,Zürme,Zürme,1,1411
21,2,2,18,1,CRel,1,animals,cow.png,Ploft,Ploft,1,1201
21,2,2,19,3,UnRel,10,clothes,coat.png,Dilpe,NA,0,-1
21,2,2,20,2,UnRel,13,insects,fly.png,Gulch,Gulch,1,991
21,2,2,21,3,CRel,11,tableware,cup.png,Knirs,Knirs,1,1436
21,2,2,22,3,UnRel,5,fruit,apple.png,Glürre,Glürre,1,2090
21,2,2,23,1,CRel,1,animals,dog.png,Jasel,Jasel,1,887
21,2,2,24,2,CRel,8,human head,nose.png,Wirs,Wirs,1,873
22,3,1,1,2,UnRel,10,clothes,skirt.png,Huspel,Huspel,1,966
22,3,1,2,3,CRel,12,shapes,diamond.png,Brähme,Brähme,1,1067
22,3,1,3,3,UnRel,1,animals,dog.png,Jasel,Jasel,1,786
22,3,1,4,1,CRel,14,electronic devices,mobile.png,Rumfe,Rumfe,1,1729
22,3,1,5,2,CRel,15,plants,tree.png,Gille,Gille,1,840
22,3,1,6,2,UnRel,9,drinks,water.png,Dimst,Dimst,1,882
22,3,1,7,2,UnRel,6,furniture,bed.png,Kansche,Kansche,1,694
22,3,1,8,1,UnRel,5,fruit,pear.png,Nork,Nors...Nork,0,794
22,3,1,9,1,CRel,14,electronic devices,camera.png,Zolge,Zolge,1,1046
22,3,1,10,2,CRel,15,plants,moss.png,Zwilk,Zwilk,1,949
22,3,1,11,3,CRel,12,shapes,trapeze.png,Quippe,Quippe,1,1033
22,3,1,12,2,UnRel,13,insects,dragonfly.png,Schmorp,Schmorp,1,827
22,3,2,13,3,UnRel,3,vegetables,potato.png,Rullner,Rullner,1,1050
22,3,2,14,3,UnRel,4,musical instruments,violin.png,Wimsch,Wimsch,1,807
22,3,2,15,2,CRel,15,plants,cactus.png,Derg,Derg,1,1201
22,3,2,16,1,UnRel,7,transportation,ship.png,Pramme,Pramme,1,1872
22,3,2,17,1,CRel,14,electronic devices,computer.png,Merst,Mmmmerst,0,1079
22,3,2,18,3,UnRel,11,tableware,cup.png,Knirs,Knirs,1,2480
22,3,2,19,3,CRel,12,shapes,circle.png,Trulf,Tulf,0,1264
22,3,2,20,2,CRel,15,plants,flower.png,Milster,Milster,1,949
22,3,2,21,1,UnRel,8,human head,mouth.png,Zürme,Zürme,1,798
22,3,2,22,1,CRel,14,electronic devices,printer.png,Jersch,Jersch,1,815
22,3,2,23,1,UnRel,2,tools,saw.png,Klüffe,Klü...pfe,0,1264
22,3,2,24,3,CRel,12,shapes,star.png,Prals,Prals,1,885
23,3,1,1,2,UnRel,10,clothes,skirt.png,Huspel,Huspel,1,757
23,3,1,2,3,CRel,12,shapes,diamond.png,Brähme,Brähme,1,845
23,3,1,3,3,UnRel,1,animals,dog.png,Jasel,Jasel,1,757
23,3,1,4,1,CRel,14,electronic devices,mobile.png,Rumfe,Rumfe,1,761
23,3,1,5,2,CRel,15,plants,tree.png,Gille,Gille,1,1180
23,3,1,6,2,UnRel,9,drinks,water.png,Dimst,Dimst,1,828
23,3,1,7,2,UnRel,6,furniture,bed.png,Kansche,Kansche,1,937
23,3,1,8,1,UnRel,5,fruit,pear.png,Nork,Nork,1,1188
23,3,1,9,1,CRel,14,electronic devices,camera.png,Zolge,Zolge,1,1247
23,3,1,10,2,CRel,15,plants,moss.png,Zwilk,Zwilk,1,924
23,3,1,11,3,CRel,12,shapes,trapeze.png,Quippe,Quippe,1,1025
23,3,1,12,2,UnRel,13,insects,dragonfly.png,Schmorp,Schmorp,1,798
23,3,2,13,3,UnRel,3,vegetables,potato.png,Rullner,Rullner,1,1092
23,3,2,14,3,UnRel,4,musical instruments,violin.png,Wimsch,Wimsch,1,761
23,3,2,15,2,CRel,15,plants,cactus.png,Derg,Derg,1,807
23,3,2,16,1,UnRel,7,transportation,ship.png,Pramme,Pramme,1,769
23,3,2,17,1,CRel,14,electronic devices,computer.png,Merst,Merst,1,1390
23,3,2,18,3,UnRel,11,tableware,cup.png,Knirs,Knirs,1,874
23,3,2,19,3,CRel,12,shapes,circle.png,Trulf,Trulf,1,1092
23,3,2,20,2,CRel,15,plants,flower.png,Milster,Milster,1,928
23,3,2,21,1,UnRel,8,human head,mouth.png,Zürme,Zürme,1,832
23,3,2,22,1,CRel,14,electronic devices,printer.png,Jersch,Jersch,1,664
23,3,2,23,1,UnRel,2,tools,saw.png,Klüffe,Klüffe,1,975
23,3,2,24,3,CRel,12,shapes,star.png,Prals,Prals,1,1190
24,5,1,1,3,CRel,10,clothes,dress.png,Lanst,Lanst,1,588
24,5,1,2,2,CRel,3,vegetables,onion.png,Troschel,Troschel,1,551
24,5,1,3,1,UnRel,4,musical instruments,drum.png,Fente,Fente,1,627
24,5,1,4,1,CRel,7,transportation,train.png,Melg,Melg,1,639
24,5,1,5,1,UnRel,14,electronic devices,printer.png,Jersch,Jersch,1,673
24,5,1,6,3,UnRel,2,tools,ax.png,Flipse,Flipse,1,698
24,5,1,7,3,CRel,10,clothes,coat.png,Dilpe,Dilpe,1,660
24,5,1,8,2,UnRel,13,insects,beetle.png,Lember,Lember,1,635
24,5,1,9,3,UnRel,8,human head,ear.png,Glutz,Glutz,1,664
24,5,1,10,1,CRel,7,transportation,bus.png,Jorn,Jorn,1,609
24,5,1,11,2,CRel,3,vegetables,tomato.png,Schinz,Schinz,1,839
24,5,1,12,3,CRel,10,clothes,trousers.png,Glienst,Glienst,1,625
24,5,2,13,2,UnRel,12,shapes,trapeze.png,Quippe,Quippe,1,621
24,5,2,14,2,UnRel,9,drinks,milk.png,Bift,Bift,1,660
24,5,2,15,1,CRel,7,transportation,ship.png,Pramme,Pramme,1,655
24,5,2,16,2,CRel,3,vegetables,potato.png,Rullner,Rullner,1,730
24,5,2,17,3,CRel,10,clothes,skirt.png,Huspel,Huspel,1,551
24,5,2,18,1,UnRel,1,animals,horse.png,Rafke,Rafke,1,597
24,5,2,19,3,UnRel,5,fruit,banana.png,Limme,Limme,1,627
24,5,2,20,1,CRel,7,transportation,car.png,Wefer,Wefer,1,635
24,5,2,21,1,UnRel,15,plants,moss.png,Zwilk,Zwilk,1,635
24,5,2,22,2,CRel,3,vegetables,cucumber.png,Lepf,Lepf,1,622
24,5,2,23,3,UnRel,11,tableware,glass.png,Randel,Randel,1,572
24,5,2,24,2,UnRel,6,furniture,cupboard.png,Gremt,Gremt,1,590
25,3,1,1,2,UnRel,10,clothes,skirt.png,Huspel,NA,0,-1
25,3,1,2,3,CRel,12,shapes,diamond.png,Brähme,Brähme,1,3101
25,3,1,3,3,UnRel,1,animals,dog.png,Jasel,Jasel,1,912
25,3,1,4,1,CRel,14,electronic devices,mobile.png,Rumfe,NA,0,-1
25,3,1,5,2,CRel,15,plants,tree.png,Gille,Gille,1,1038
25,3,1,6,2,UnRel,9,drinks,water.png,Dimst,Dimst,1,920
25,3,1,7,2,UnRel,6,furniture,bed.png,Kansche,Kansche,1,1256
25,3,1,8,1,UnRel,5,fruit,pear.png,Nork,Nork,1,895
25,3,1,9,1,CRel,14,electronic devices,camera.png,Zolge,NA,0,-1
25,3,1,10,2,CRel,15,plants,moss.png,Zwilk,Zwilk,1,1667
25,3,1,11,3,CRel,12,shapes,trapeze.png,Quippe,Quippe,1,987
25,3,1,12,2,UnRel,13,insects,dragonfly.png,Schmorp,Schmorp,1,1144
25,3,2,13,3,UnRel,3,vegetables,potato.png,Rullner,NA,0,-1
25,3,2,14,3,UnRel,4,musical instruments,violin.png,Wimsch,Wimsch,1,958
25,3,2,15,2,CRel,15,plants,cactus.png,Derg,Derg,1,882
25,3,2,16,1,UnRel,7,transportation,ship.png,Pramme,Pramme,1,1088
25,3,2,17,1,CRel,14,electronic devices,computer.png,Merst,NA,0,-1
25,3,2,18,3,UnRel,11,tableware,cup.png,Knirs,Knirs,1,1742
25,3,2,19,3,CRel,12,shapes,circle.png,Trulf,Trulf,1,1285
25,3,2,20,2,CRel,15,plants,flower.png,Milster,Milster,1,824
25,3,2,21,1,UnRel,8,human head,mouth.png,Zürme,NA,0,-1
25,3,2,22,1,CRel,14,electronic devices,printer.png,Jersch,Jersch,1,1545
25,3,2,23,1,UnRel,2,tools,saw.png,Klüffe,Klüffe,1,2107
25,3,2,24,3,CRel,12,shapes,star.png,Prals,Prals,1,1732
26,5,1,1,3,CRel,10,clothes,dress.png,Lanst,Lanst,1,891
26,5,1,2,2,CRel,3,vegetables,onion.png,Troschel,Troschel,1,668
26,5,1,3,1,UnRel,4,musical instruments,drum.png,Fente,Fente,1,1050
26,5,1,4,1,CRel,7,transportation,train.png,Melg,Melg,1,849
26,5,1,5,1,UnRel,14,electronic devices,printer.png,Jersch,Jersch,1,916
26,5,1,6,3,UnRel,2,tools,ax.png,Flipse,Flipse,1,815
26,5,1,7,3,CRel,10,clothes,coat.png,Dilpe,Dilpe,1,987
26,5,1,8,2,UnRel,13,insects,beetle.png,Lember,Lember,1,765
26,5,1,9,3,UnRel,8,human head,ear.png,Glutz,Glutz,1,622
26,5,1,10,1,CRel,7,transportation,bus.png,Jorn,Jorn,1,908
26,5,1,11,2,CRel,3,vegetables,tomato.png,Schinz,Schinz,1,694
26,5,1,12,3,CRel,10,clothes,trousers.png,Glienst,Glienst,1,1173
26,5,2,13,2,UnRel,12,shapes,trapeze.png,Quippe,Quippe,1,702
26,5,2,14,2,UnRel,9,drinks,milk.png,Bift,Bift,1,765
26,5,2,15,1,CRel,7,transportation,ship.png,Pramme,Schra...Pramme,0,840
26,5,2,16,2,CRel,3,vegetables,potato.png,Rullner,Rullner,1,794
26,5,2,17,3,CRel,10,clothes,skirt.png,Huspel,Huspel,1,891
26,5,2,18,1,UnRel,1,animals,horse.png,Rafke,Rafke,1,832
26,5,2,19,3,UnRel,5,fruit,banana.png,Limme,Limme,1,849
26,5,2,20,1,CRel,7,transportation,car.png,Wefer,Wefer,1,798
26,5,2,21,1,UnRel,15,plants,moss.png,Zwilk,Zwilk,1,740
26,5,2,22,2,CRel,3,vegetables,cucumber.png,Lepf,Lepf,1,1054
26,5,2,23,3,UnRel,11,tableware,glass.png,Randel,Randel,1,786
26,5,2,24,2,UnRel,6,furniture,cupboard.png,Gremt,Gremt,1,1017
28,2,1,1,3,CRel,11,tableware,bowl.png,Glemp,Glemp,1,723
28,2,1,2,1,CRel,1,animals,cat.png,Marp,Marp,1,522
28,2,1,3,1,UnRel,15,plants,cactus.png,Derg,Derg,1,648
28,2,1,4,2,CRel,8,human head,eye.png,Limfer,Limfer,1,685
28,2,1,5,2,UnRel,2,tools,hammer.png,Jund,Jund,1,597
28,2,1,6,2,UnRel,3,vegetables,tomato.png,Schinz,Schinz,1,731
28,2,1,7,3,CRel,11,tableware,glass.png,Randel,Randel,1,681
28,2,1,8,1,UnRel,7,transportation,bus.png,Jorn,Jorn,1,559
28,2,1,9,1,CRel,1,animals,horse.png,Rafke,Rafke,1,811
28,2,1,10,2,CRel,8,human head,ear.png,Glutz,Glutz,1,1331
28,2,1,11,1,UnRel,12,shapes,star.png,Prals,Prals,1,576
28,2,1,12,3,CRel,11,tableware,plate.png,Schrenge,Schrenge,1,1144
28,2,2,13,3,UnRel,6,furniture,chair.png,Berne,Berne,1,698
28,2,2,14,2,UnRel,4,musical instruments,guitar.png,Zort,Zort,1,685
28,2,2,15,3,UnRel,14,electronic devices,computer.png,Merst,Merst,1,673
28,2,2,16,1,UnRel,9,drinks,coffee.png,Nimse,Nimse,1,606
28,2,2,17,2,CRel,8,human head,mouth.png,Zürme,Zürme,1,1650
28,2,2,18,1,CRel,1,animals,cow.png,Ploft,Ploft,1,1184
28,2,2,19,3,UnRel,10,clothes,coat.png,Dilpe,Dilpe,1,736
28,2,2,20,2,UnRel,13,insects,fly.png,Gulch,Gulch,1,618
28,2,2,21,3,CRel,11,tableware,cup.png,Knirs,Glemp,0,765
28,2,2,22,3,UnRel,5,fruit,apple.png,Glürre,Glürre,1,1545
28,2,2,23,1,CRel,1,animals,dog.png,Jasel,Jase...Jasel,0,568
28,2,2,24,2,CRel,8,human head,nose.png,Wirs,Wirs,1,1231
29,5,1,1,3,CRel,10,clothes,dress.png,Lanst,Lanst,1,1277
29,5,1,2,2,CRel,3,vegetables,onion.png,Troschel,Troschel,1,765
29,5,1,3,1,UnRel,4,musical instruments,drum.png,Fente,Fente,1,887
29,5,1,4,1,CRel,7,transportation,train.png,Melg,Melg,1,794
29,5,1,5,1,UnRel,14,electronic devices,printer.png,Jersch,Jersch,1,916
29,5,1,6,3,UnRel,2,tools,ax.png,Flipse,ähm...Flipse,0,975
29,5,1,7,3,CRel,10,clothes,coat.png,Dilpe,Dilpe,1,882
29,5,1,8,2,UnRel,13,insects,beetle.png,Lember,Lember,1,769
29,5,1,9,3,UnRel,8,human head,ear.png,Glutz,Glutz,1,895
29,5,1,10,1,CRel,7,transportation,bus.png,Jorn,Jer...Jorn,0,962
29,5,1,11,2,CRel,3,vegetables,tomato.png,Schinz,Schinz,1,815
29,5,1,12,3,CRel,10,clothes,trousers.png,Glienst,Glienst,1,787
29,5,2,13,2,UnRel,12,shapes,trapeze.png,Quippe,Quippe,1,786
29,5,2,14,2,UnRel,9,drinks,milk.png,Bift,Bift,1,870
29,5,2,15,1,CRel,7,transportation,ship.png,Pramme,Pramme,1,845
29,5,2,16,2,CRel,3,vegetables,potato.png,Rullner,Rullner,1,773
29,5,2,17,3,CRel,10,clothes,skirt.png,Huspel,Huspel,1,849
29,5,2,18,1,UnRel,1,animals,horse.png,Rafke,Rafke,1,1017
29,5,2,19,3,UnRel,5,fruit,banana.png,Limme,Limme,1,824
29,5,2,20,1,CRel,7,transportation,car.png,Wefer,Wefer,1,1147
29,5,2,21,1,UnRel,15,plants,moss.png,Zwilk,Zwilk,1,895
29,5,2,22,2,CRel,3,vegetables,cucumber.png,Lepf,Lepf,1,903
29,5,2,23,3,UnRel,11,tableware,glass.png,Randel,Randel,1,991
29,5,2,24,2,UnRel,6,furniture,cupboard.png,Gremt,Gremt,1,815
30,2,1,1,3,CRel,11,tableware,bowl.png,Glemp,NA,0,-1
30,2,1,2,1,CRel,1,animals,cat.png,Marp,Marp,1,694
30,2,1,3,1,UnRel,15,plants,cactus.png,Derg,Derg,1,1683
30,2,1,4,2,CRel,8,human head,eye.png,Limfer,Limfer,1,1105
30,2,1,5,2,UnRel,2,tools,hammer.png,Jund,NA,0,-1
30,2,1,6,2,UnRel,3,vegetables,tomato.png,Schinz,Schnitz...Schinz,0,1805
30,2,1,7,3,CRel,11,tableware,glass.png,Randel,Randel,1,1943
30,2,1,8,1,UnRel,7,transportation,bus.png,Jorn,Jorn,1,1021
30,2,1,9,1,CRel,1,animals,horse.png,Rafke,Rafke,1,1746
30,2,1,10,2,CRel,8,human head,ear.png,Glutz,Glutz,1,2203
30,2,1,11,1,UnRel,12,shapes,star.png,Prals,Prals,1,1465
30,2,1,12,3,CRel,11,tableware,plate.png,Schrenge,Schrenge,1,1207
30,2,2,13,3,UnRel,6,furniture,chair.png,Berne,Berne,1,1218
30,2,2,14,2,UnRel,4,musical instruments,guitar.png,Zort,Z...,0,3487
30,2,2,15,3,UnRel,14,electronic devices,computer.png,Merst,Merst,1,1448
30,2,2,16,1,UnRel,9,drinks,coffee.png,Nimse,Nimse,1,1155
30,2,2,17,2,CRel,8,human head,mouth.png,Zürme,Zürme,1,1272
30,2,2,18,1,CRel,1,animals,cow.png,Ploft,P...Plo...Ploft,0,1964
30,2,2,19,3,UnRel,10,clothes,coat.png,Dilpe,Dilpe,1,1516
30,2,2,20,2,UnRel,13,insects,fly.png,Gulch,Gulch,1,1373
30,2,2,21,3,CRel,11,tableware,cup.png,Knirs,Knirs,1,1763
30,2,2,22,3,UnRel,5,fruit,apple.png,Glürre,NA,0,-1
30,2,2,23,1,CRel,1,animals,dog.png,Jasel,J...Jarn,0,2065
30,2,2,24,2,CRel,8,human head,nose.png,Wirs,Wirs,1,919
31,3,1,1,2,UnRel,10,clothes,skirt.png,Huspel,Huspel,1,786
31,3,1,2,3,CRel,12,shapes,diamond.png,Brähme,ähm...Brähme,0,1100
31,3,1,3,3,UnRel,1,animals,dog.png,Jasel,Jasel,1,895
31,3,1,4,1,CRel,14,electronic devices,mobile.png,Rumfe,Rumfe,1,1054
31,3,1,5,2,CRel,15,plants,tree.png,Gille,Gille,1,1398
31,3,1,6,2,UnRel,9,drinks,water.png,Dimst,Dimst,1,962
31,3,1,7,2,UnRel,6,furniture,bed.png,Kansche,Kansche,1,1272
31,3,1,8,1,UnRel,5,fruit,pear.png,Nork,Nork,1,1113
31,3,1,9,1,CRel,14,electronic devices,camera.png,Zolge,Zolge,1,1662
31,3,1,10,2,CRel,15,plants,moss.png,Zwilk,Zwilk,1,878
31,3,1,11,3,CRel,12,shapes,trapeze.png,Quippe,Quippe,1,1033
31,3,1,12,2,UnRel,13,insects,dragonfly.png,Schmorp,Schmorp,1,885
31,3,2,13,3,UnRel,3,vegetables,potato.png,Rullner,Rullner,1,2136
31,3,2,14,3,UnRel,4,musical instruments,violin.png,Wimsch,Wimsch,1,1293
31,3,2,15,2,CRel,15,plants,cactus.png,Derg,Derg,1,878
31,3,2,16,1,UnRel,7,transportation,ship.png,Pramme,Pramme,1,1356
31,3,2,17,1,CRel,14,electronic devices,computer.png,Merst,Merst,1,1314
31,3,2,18,3,UnRel,11,tableware,cup.png,Knirs,Knirs,1,2023
31,3,2,19,3,CRel,12,shapes,circle.png,Trulf,Trulf,1,1528
31,3,2,20,2,CRel,15,plants,flower.png,Milster,Milster,1,1721
31,3,2,21,1,UnRel,8,human head,mouth.png,Zürme,Zürme,1,1054
31,3,2,22,1,CRel,14,electronic devices,printer.png,Jersch,Jersch,1,3625
31,3,2,23,1,UnRel,2,tools,saw.png,Klüffe,Klüffe,1,1583
31,3,2,24,3,CRel,12,shapes,star.png,Prals,Prals,1,988
33,5,1,1,3,CRel,10,clothes,dress.png,Lanst,Lanst,1,1075
33,5,1,2,2,CRel,3,vegetables,onion.png,Troschel,Troschel,1,908
33,5,1,3,1,UnRel,4,musical instruments,drum.png,Fente,Fente,1,794
33,5,1,4,1,CRel,7,transportation,train.png,Melg,Melg,1,1201
33,5,1,5,1,UnRel,14,electronic devices,printer.png,Jersch,Jersch,1,907
33,5,1,6,3,UnRel,2,tools,ax.png,Flipse,Flipse,1,1251
33,5,1,7,3,CRel,10,clothes,coat.png,Dilpe,Dilpe,1,1365
33,5,1,8,2,UnRel,13,insects,beetle.png,Lember,Lember,1,1042
33,5,1,9,3,UnRel,8,human head,ear.png,Glutz,Glutz,1,899
33,5,1,10,1,CRel,7,transportation,bus.png,Jorn,Jorn,1,1046
33,5,1,11,2,CRel,3,vegetables,tomato.png,Schinz,Schinz,1,983
33,5,1,12,3,CRel,10,clothes,trousers.png,Glienst,Glienst,1,1432
33,5,2,13,2,UnRel,12,shapes,trapeze.png,Quippe,Quippe,1,954
33,5,2,14,2,UnRel,9,drinks,milk.png,Bift,Bift,1,954
33,5,2,15,1,CRel,7,transportation,ship.png,Pramme,Pramme,1,882
33,5,2,16,2,CRel,3,vegetables,potato.png,Rullner,Rullner,1,1168
33,5,2,17,3,CRel,10,clothes,skirt.png,Huspel,Huspel,1,1121
33,5,2,18,1,UnRel,1,animals,horse.png,Rafke,Rafke,1,991
33,5,2,19,3,UnRel,5,fruit,banana.png,Limme,Limme,1,1004
33,5,2,20,1,CRel,7,transportation,car.png,Wefer,Wefer,1,878
33,5,2,21,1,UnRel,15,plants,moss.png,Zwilk,Zwilk,1,878
33,5,2,22,2,CRel,3,vegetables,cucumber.png,Lepf,Lepf,1,891
33,5,2,23,3,UnRel,11,tableware,glass.png,Randel,Randel,1,803
33,5,2,24,2,UnRel,6,furniture,cupboard.png,Gremt,Gremt,1,1052
34,4,1,1,2,CRel,6,furniture,chair.png,Berne,Berne,1,736
34,4,1,2,3,UnRel,15,plants,flower.png,Milster,Milster,1,765
34,4,1,3,2,UnRel,1,animals,cow.png,Ploft,Ploft,1,908
34,4,1,4,3,CRel,13,insects,butterfly.png,Wulge,Wulge,1,715
34,4,1,5,1,CRel,9,drinks,coffee.png,Nimse,Nimse,1,677
34,4,1,6,2,CRel,6,furniture,table.png,Rixt,Rixt,1,698
34,4,1,7,1,UnRel,12,shapes,circle.png,Trulf,Trulf,1,736
34,4,1,8,1,UnRel,8,human head,nose.png,Wirs,Wirs,1,786
34,4,1,9,3,UnRel,11,tableware,bowl.png,Glemp,Glemp,1,677
34,4,1,10,3,CRel,13,insects,fly.png,Gulch,Gulch,1,694
34,4,1,11,1,UnRel,3,vegetables,cucumber.png,Lepf,Lepf,1,689
34,4,1,12,2,UnRel,7,transportation,train.png,Melg,Melg,1,798
34,4,2,13,1,CRel,9,drinks,tea.png,Mönnel,Mönnel,1,681
34,4,2,14,1,UnRel,2,tools,pliers.png,Scholk,Scholk,1,643
34,4,2,15,3,UnRel,10,clothes,dress.png,Lanst,Lanst,1,698
34,4,2,16,3,CRel,13,insects,dragonfly.png,Schmorp,Schmarp,0,664
34,4,2,17,2,CRel,6,furniture,cupboard.png,Gremt,Gremt,1,769
34,4,2,18,1,CRel,9,drinks,water.png,Dimst,Dimst,1,996
34,4,2,19,2,UnRel,5,fruit,orange.png,Amst,Amst,1,689
34,4,2,20,3,UnRel,4,musical instruments,piano.png,Mirge,Mirge,1,828
34,4,2,21,2,UnRel,14,electronic devices,camera.png,Zolge,Zolge,1,761
34,4,2,22,3,CRel,13,insects,beetle.png,Lember,Lember,1,731
34,4,2,23,1,CRel,9,drinks,milk.png,Bift,Bift,1,798
34,4,2,24,2,CRel,6,furniture,bed.png,Kansche,Kansche,1,792
35,5,1,1,3,CRel,10,clothes,dress.png,Lanst,Lanst,1,786
35,5,1,2,2,CRel,3,vegetables,onion.png,Troschel,Troschel,1,744
35,5,1,3,1,UnRel,4,musical instruments,drum.png,Fente,Fente,1,677
35,5,1,4,1,CRel,7,transportation,train.png,Melg,Melg,1,1126
35,5,1,5,1,UnRel,14,electronic devices,printer.png,Jersch,Jersch,1,698
35,5,1,6,3,UnRel,2,tools,ax.png,Flipse,Flipse,1,769
35,5,1,7,3,CRel,10,clothes,coat.png,Dilpe,Dilpe,1,840
35,5,1,8,2,UnRel,13,insects,beetle.png,Lember,Lember,1,727
35,5,1,9,3,UnRel,8,human head,ear.png,Glutz,Glutz,1,719
35,5,1,10,1,CRel,7,transportation,bus.png,Jorn,Jorn,1,744
35,5,1,11,2,CRel,3,vegetables,tomato.png,Schinz,Schinz,1,731
35,5,1,12,3,CRel,10,clothes,trousers.png,Glienst,Glienst,1,787
35,5,2,13,2,UnRel,12,shapes,trapeze.png,Quippe,Quippe,1,727
35,5,2,14,2,UnRel,9,drinks,milk.png,Bift,Bift,1,811
35,5,2,15,1,CRel,7,transportation,ship.png,Pramme,Pramme,1,824
35,5,2,16,2,CRel,3,vegetables,potato.png,Rullner,Rullner,1,807
35,5,2,17,3,CRel,10,clothes,skirt.png,Huspel,Huspel,1,777
35,5,2,18,1,UnRel,1,animals,horse.png,Rafke,Rafke,1,773
35,5,2,19,3,UnRel,5,fruit,banana.png,Limme,Limme,1,937
35,5,2,20,1,CRel,7,transportation,car.png,Wefer,Wefer,1,777
35,5,2,21,1,UnRel,15,plants,moss.png,Zwilk,Zwilk,1,698
35,5,2,22,2,CRel,3,vegetables,cucumber.png,Lepf,Lepf,1,769
35,5,2,23,3,UnRel,11,tableware,glass.png,Randel,Randel,1,652
35,5,2,24,2,UnRel,6,furniture,cupboard.png,Gremt,Gremt,1,723
36,3,1,1,2,UnRel,10,clothes,skirt.png,Huspel,Huspel,1,773
36,3,1,2,3,CRel,12,shapes,diamond.png,Brähme,Brähme,1,1486
36,3,1,3,3,UnRel,1,animals,dog.png,Jasel,Jasel,1,614
36,3,1,4,1,CRel,14,electronic devices,mobile.png,Rumfe,Rumfe,1,928
36,3,1,5,2,CRel,15,plants,tree.png,Gille,Gille,1,564
36,3,1,6,2,UnRel,9,drinks,water.png,Dimst,Dimst,1,681
36,3,1,7,2,UnRel,6,furniture,bed.png,Kansche,Kansche,1,627
36,3,1,8,1,UnRel,5,fruit,pear.png,Nork,Nork,1,631
36,3,1,9,1,CRel,14,electronic devices,camera.png,Zolge,Zolge,1,836
36,3,1,10,2,CRel,15,plants,moss.png,Zwilk,Zwilk,1,647
36,3,1,11,3,CRel,12,shapes,trapeze.png,Quippe,Quippe,1,928
36,3,1,12,2,UnRel,13,insects,dragonfly.png,Schmorp,Schmorp,1,642
36,3,2,13,3,UnRel,3,vegetables,potato.png,Rullner,Rullner,1,643
36,3,2,14,3,UnRel,4,musical instruments,violin.png,Wimsch,Wimsch,1,723
36,3,2,15,2,CRel,15,plants,cactus.png,Derg,Derg,1,488
36,3,2,16,1,UnRel,7,transportation,ship.png,Pramme,Pramme,1,710
36,3,2,17,1,CRel,14,electronic devices,computer.png,Merst,Merst,1,887
36,3,2,18,3,UnRel,11,tableware,cup.png,Knirs,Knirs,1,643
36,3,2,19,3,CRel,12,shapes,circle.png,Trulf,Trulf,1,744
36,3,2,20,2,CRel,15,plants,flower.png,Milster,Milster,1,547
36,3,2,21,1,UnRel,8,human head,mouth.png,Zürme,Zürme,1,908
36,3,2,22,1,CRel,14,electronic devices,printer.png,Jersch,Jersch,1,857
36,3,2,23,1,UnRel,2,tools,saw.png,Klüffe,Klüffe,1,765
36,3,2,24,3,CRel,12,shapes,star.png,Prals,Prals,1,781
38,3,1,1,2,UnRel,10,clothes,skirt.png,Huspel,Huspel,1,748
38,3,1,2,3,CRel,12,shapes,diamond.png,Brähme,Brähme,1,928
38,3,1,3,3,UnRel,1,animals,dog.png,Jasel,Jasel,1,681
38,3,1,4,1,CRel,14,electronic devices,mobile.png,Rumfe,Rumfe,1,694
38,3,1,5,2,CRel,15,plants,tree.png,Gille,Gille,1,647
38,3,1,6,2,UnRel,9,drinks,water.png,Dimst,Dimst,1,715
38,3,1,7,2,UnRel,6,furniture,bed.png,Kansche,Kansche,1,769
38,3,1,8,1,UnRel,5,fruit,pear.png,Nork,Nork,1,757
38,3,1,9,1,CRel,14,electronic devices,camera.png,Zolge,Zolge,1,706
38,3,1,10,2,CRel,15,plants,moss.png,Zwilk,Zwilk,1,702
38,3,1,11,3,CRel,12,shapes,trapeze.png,Quippe,Quippe,1,1147
38,3,1,12,2,UnRel,13,insects,dragonfly.png,Schmorp,Schmorp,1,683
38,3,2,13,3,UnRel,3,vegetables,potato.png,Rullner,Rullner,1,719
38,3,2,14,3,UnRel,4,musical instruments,violin.png,Wimsch,Wimsch,1,601
38,3,2,15,2,CRel,15,plants,cactus.png,Derg,Derg,1,748
38,3,2,16,1,UnRel,7,transportation,ship.png,Pramme,Pramme,1,706
38,3,2,17,1,CRel,14,electronic devices,computer.png,Merst,Merst,1,706
38,3,2,18,3,UnRel,11,tableware,cup.png,Knirs,Knirs,1,765
38,3,2,19,3,CRel,12,shapes,circle.png,Trulf,Trulf,1,878
38,3,2,20,2,CRel,15,plants,flower.png,Milster,Milster,1,627
38,3,2,21,1,UnRel,8,human head,mouth.png,Zürme,Zürme,1,685
38,3,2,22,1,CRel,14,electronic devices,printer.png,Jersch,Jersch,1,824
38,3,2,23,1,UnRel,2,tools,saw.png,Klüffe,Klüffe,1,698
38,3,2,24,3,CRel,12,shapes,star.png,Prals,Prals,1,1092
39,4,1,1,2,CRel,6,furniture,chair.png,Berne,NA,0,-1
39,4,1,2,3,UnRel,15,plants,flower.png,Milster,Mirge,0,2132
39,4,1,3,2,UnRel,1,animals,cow.png,Ploft,Ploft,1,610
39,4,1,4,3,CRel,13,insects,butterfly.png,Wulge,Wulge,1,668
39,4,1,5,1,CRel,9,drinks,coffee.png,Nimse,Nimse,1,1046
39,4,1,6,2,CRel,6,furniture,table.png,Rixt,Rixt,1,1205
39,4,1,7,1,UnRel,12,shapes,circle.png,Trulf,Trulf,1,958
39,4,1,8,1,UnRel,8,human head,nose.png,Wirs,Wirs,1,698
39,4,1,9,3,UnRel,11,tableware,bowl.png,Glemp,Glemp,1,882
39,4,1,10,3,CRel,13,insects,fly.png,Gulch,Gulch,1,1268
39,4,1,11,1,UnRel,3,vegetables,cucumber.png,Lepf,Lepf,1,895
39,4,1,12,2,UnRel,7,transportation,train.png,Melg,Melg,1,936
39,4,2,13,1,CRel,9,drinks,tea.png,Mönnel,Mönnel,1,857
39,4,2,14,1,UnRel,2,tools,pliers.png,Scholk,Scholk,1,769
39,4,2,15,3,UnRel,10,clothes,dress.png,Lanst,Lanst,1,702
39,4,2,16,3,CRel,13,insects,dragonfly.png,Schmorp,Schmorp,1,874
39,4,2,17,2,CRel,6,furniture,cupboard.png,Gremt,Gremt,1,908
39,4,2,18,1,CRel,9,drinks,water.png,Dimst,Dimst,1,807
39,4,2,19,2,UnRel,5,fruit,orange.png,Amst,Amst,1,664
39,4,2,20,3,UnRel,4,musical instruments,piano.png,Mirge,Mirge,1,1058
39,4,2,21,2,UnRel,14,electronic devices,camera.png,Zolge,Zolge,1,882
39,4,2,22,3,CRel,13,insects,beetle.png,Lember,Lember,1,790
39,4,2,23,1,CRel,9,drinks,milk.png,Bift,Bift,1,681
39,4,2,24,2,CRel,6,furniture,bed.png,Kansche,Kansche,1,752
40,4,1,1,2,CRel,6,furniture,chair.png,Berne,Berne,1,962
40,4,1,2,3,UnRel,15,plants,flower.png,Milster,Milster,1,849
40,4,1,3,2,UnRel,1,animals,cow.png,Ploft,Ploft,1,899
40,4,1,4,3,CRel,13,insects,butterfly.png,Wulge,Wulge,1,945
40,4,1,5,1,CRel,9,drinks,coffee.png,Nimse,Nimse,1,719
40,4,1,6,2,CRel,6,furniture,table.png,Rixt,Rixt,1,836
40,4,1,7,1,UnRel,12,shapes,circle.png,Trulf,Trulf,1,912
40,4,1,8,1,UnRel,8,human head,nose.png,Wirs,Wirs,1,1017
40,4,1,9,3,UnRel,11,tableware,bowl.png,Glemp,Gr...Gremp,0,991
40,4,1,10,3,CRel,13,insects,fly.png,Gulch,Gulch,1,945
40,4,1,11,1,UnRel,3,vegetables,cucumber.png,Lepf,Lepf,1,891
40,4,1,12,2,UnRel,7,transportation,train.png,Melg,Melg,1,1184
40,4,2,13,1,CRel,9,drinks,tea.png,Mönnel,Mönnel,1,1100
40,4,2,14,1,UnRel,2,tools,pliers.png,Scholk,Schork,0,1105
40,4,2,15,3,UnRel,10,clothes,dress.png,Lanst,Lanst,1,958
40,4,2,16,3,CRel,13,insects,dragonfly.png,Schmorp,Schmorp,1,853
40,4,2,17,2,CRel,6,furniture,cupboard.png,Gremt,Gremt,1,1163
40,4,2,18,1,CRel,9,drinks,water.png,Dimst,Dimst,1,912
40,4,2,19,2,UnRel,5,fruit,orange.png,Amst,Amst,1,870
40,4,2,20,3,UnRel,4,musical instruments,piano.png,Mirge,Mirge,1,1075
40,4,2,21,2,UnRel,14,electronic devices,camera.png,Zolge,Zolge,1,1142
40,4,2,22,3,CRel,13,insects,beetle.png,Lember,Lember,1,849
40,4,2,23,1,CRel,9,drinks,milk.png,Bift,Bift,1,1033
40,4,2,24,2,CRel,6,furniture,bed.png,Kansche,Kansche,1,1029
41,4,1,1,2,CRel,6,furniture,chair.png,Berne,Berne,1,1075
41,4,1,2,3,UnRel,15,plants,flower.png,Milster,Milster,1,958
41,4,1,3,2,UnRel,1,animals,cow.png,Ploft,Ploft,1,757
41,4,1,4,3,CRel,13,insects,butterfly.png,Wulge,Wulge,1,1595
41,4,1,5,1,CRel,9,drinks,coffee.png,Nimse,Nimse,1,727
41,4,1,6,2,CRel,6,furniture,table.png,Rixt,Rixt,1,1444
41,4,1,7,1,UnRel,12,shapes,circle.png,Trulf,Trulf,1,987
41,4,1,8,1,UnRel,8,human head,nose.png,Wirs,Mirs...Wirs,0,882
41,4,1,9,3,UnRel,11,tableware,bowl.png,Glemp,Glemp,1,928
41,4,1,10,3,CRel,13,insects,fly.png,Gulch,Gulch,1,962
41,4,1,11,1,UnRel,3,vegetables,cucumber.png,Lepf,Lepf,1,1239
41,4,1,12,2,UnRel,7,transportation,train.png,Melg,Melg,1,3975
41,4,2,13,1,CRel,9,drinks,tea.png,Mönnel,Mönnel,1,1075
41,4,2,14,1,UnRel,2,tools,pliers.png,Scholk,Scholk,1,727
41,4,2,15,3,UnRel,10,clothes,dress.png,Lanst,Lanst,1,761
41,4,2,16,3,CRel,13,insects,dragonfly.png,Schmorp,Schmorp,1,731
41,4,2,17,2,CRel,6,furniture,cupboard.png,Gremt,Grempt,0,949
41,4,2,18,1,CRel,9,drinks,water.png,Dimst,Dimst,1,1566
41,4,2,19,2,UnRel,5,fruit,orange.png,Amst,Amst,1,790
41,4,2,20,3,UnRel,4,musical instruments,piano.png,Mirge,Mirge,1,815
41,4,2,21,2,UnRel,14,electronic devices,camera.png,Zolge,Zolge,1,899
41,4,2,22,3,CRel,13,insects,beetle.png,Lember,Lember,1,1155
41,4,2,23,1,CRel,9,drinks,milk.png,Bift,Bift,1,1100
41,4,2,24,2,CRel,6,furniture,bed.png,Kansche,Kansche,1,1000
42,3,1,1,2,UnRel,10,clothes,skirt.png,Huspel,Huspel,1,660
42,3,1,2,3,CRel,12,shapes,diamond.png,Brähme,Brähme,1,652
42,3,1,3,3,UnRel,1,animals,dog.png,Jasel,Jasel,1,656
42,3,1,4,1,CRel,14,electronic devices,mobile.png,Rumfe,Rumfe,1,572
42,3,1,5,2,CRel,15,plants,tree.png,Gille,Gille,1,723
42,3,1,6,2,UnRel,9,drinks,water.png,Dimst,Dimst,1,694
42,3,1,7,2,UnRel,6,furniture,bed.png,Kansche,Kansche,1,761
42,3,1,8,1,UnRel,5,fruit,pear.png,Nork,Nork,1,597
42,3,1,9,1,CRel,14,electronic devices,camera.png,Zolge,Zolge,1,706
42,3,1,10,2,CRel,15,plants,moss.png,Zwilk,Zwilk,1,719
42,3,1,11,3,CRel,12,shapes,trapeze.png,Quippe,Quippe,1,694
42,3,1,12,2,UnRel,13,insects,dragonfly.png,Schmorp,Schmorp,1,752
42,3,2,13,3,UnRel,3,vegetables,potato.png,Rullner,Rullner,1,1004
42,3,2,14,3,UnRel,4,musical instruments,violin.png,Wimsch,Wimsch,1,677
42,3,2,15,2,CRel,15,plants,cactus.png,Derg,Derg,1,685
42,3,2,16,1,UnRel,7,transportation,ship.png,Pramme,Pramme,1,647
42,3,2,17,1,CRel,14,electronic devices,computer.png,Merst,Merst,1,916
42,3,2,18,3,UnRel,11,tableware,cup.png,Knirs,Knirs,1,828
42,3,2,19,3,CRel,12,shapes,circle.png,Trulf,Trulf,1,845
42,3,2,20,2,CRel,15,plants,flower.png,Milster,Milster,1,643
42,3,2,21,1,UnRel,8,human head,mouth.png,Zürme,Zürme,1,694
42,3,2,22,1,CRel,14,electronic devices,printer.png,Jersch,Jersch,1,710
42,3,2,23,1,UnRel,2,tools,saw.png,Klüffe,Klüffe,1,1050
42,3,2,24,3,CRel,12,shapes,star.png,Prals,Prals,1,671
43,2,1,1,3,CRel,11,tableware,bowl.png,Glemp,Glemp,1,748
43,2,1,2,1,CRel,1,animals,cat.png,Marp,Marp,1,639
43,2,1,3,1,UnRel,15,plants,cactus.png,Derg,Derg,1,757
43,2,1,4,2,CRel,8,human head,eye.png,Limfer,Limfer,1,715
43,2,1,5,2,UnRel,2,tools,hammer.png,Jund,Jund,1,1549
43,2,1,6,2,UnRel,3,vegetables,tomato.png,Schinz,Schinz,1,744
43,2,1,7,3,CRel,11,tableware,glass.png,Randel,Randel,1,975
43,2,1,8,1,UnRel,7,transportation,bus.png,Jorn,Jorn,1,1088
43,2,1,9,1,CRel,1,animals,horse.png,Rafke,Rafke,1,752
43,2,1,10,2,CRel,8,human head,ear.png,Glutz,Glutz,1,1105
43,2,1,11,1,UnRel,12,shapes,star.png,Prals,Prals,1,727
43,2,1,12,3,CRel,11,tableware,plate.png,Schrenge,Schrenge,1,971
43,2,2,13,3,UnRel,6,furniture,chair.png,Berne,Berne,1,1033
43,2,2,14,2,UnRel,4,musical instruments,guitar.png,Zort,Zort,1,983
43,2,2,15,3,UnRel,14,electronic devices,computer.png,Merst,Merst,1,849
43,2,2,16,1,UnRel,9,drinks,coffee.png,Nimse,Nimse,1,685
43,2,2,17,2,CRel,8,human head,mouth.png,Zürme,Zürme,1,773
43,2,2,18,1,CRel,1,animals,cow.png,Ploft,Ploft,1,815
43,2,2,19,3,UnRel,10,clothes,coat.png,Dilpe,Dilpe,1,941
43,2,2,20,2,UnRel,13,insects,fly.png,Gulch,Gulch,1,777
43,2,2,21,3,CRel,11,tableware,cup.png,Knirs,Knirs,1,853
43,2,2,22,3,UnRel,5,fruit,apple.png,Glürre,Glürre,1,1373
43,2,2,23,1,CRel,1,animals,dog.png,Jasel,Jasel,1,962
43,2,2,24,2,CRel,8,human head,nose.png,Wirs,Wirs,1,919
44,2,1,1,3,CRel,11,tableware,bowl.png,Glemp,Glemp,1,710
44,2,1,2,1,CRel,1,animals,cat.png,Marp,Marp,1,694
44,2,1,3,1,UnRel,15,plants,cactus.png,Derg,Derg,1,824
44,2,1,4,2,CRel,8,human head,eye.png,Limfer,Limfer,1,811
44,2,1,5,2,UnRel,2,tools,hammer.png,Jund,Jund,1,815
44,2,1,6,2,UnRel,3,vegetables,tomato.png,Schinz,Schinz,1,752
44,2,1,7,3,CRel,11,tableware,glass.png,Randel,Randel,1,748
44,2,1,8,1,UnRel,7,transportation,bus.png,Jorn,Jorn,1,643
44,2,1,9,1,CRel,1,animals,horse.png,Rafke,Rafke,1,627
44,2,1,10,2,CRel,8,human head,ear.png,Glutz,Glutz,1,962
44,2,1,11,1,UnRel,12,shapes,star.png,Prals,Prals,1,652
44,2,1,12,3,CRel,11,tableware,plate.png,Schrenge,Schrenge,1,660
44,2,2,13,3,UnRel,6,furniture,chair.png,Berne,Berne,1,887
44,2,2,14,2,UnRel,4,musical instruments,guitar.png,Zort,Zort,1,668
44,2,2,15,3,UnRel,14,electronic devices,computer.png,Merst,Merst,1,736
44,2,2,16,1,UnRel,9,drinks,coffee.png,Nimse,Nimse,1,647
44,2,2,17,2,CRel,8,human head,mouth.png,Zürme,Zürme,1,786
44,2,2,18,1,CRel,1,animals,cow.png,Ploft,Ploft,1,949
44,2,2,19,3,UnRel,10,clothes,coat.png,Dilpe,Dilpe,1,849
44,2,2,20,2,UnRel,13,insects,fly.png,Gulch,Gulch,1,736
44,2,2,21,3,CRel,11,tableware,cup.png,Knirs,Knirs,1,807
44,2,2,22,3,UnRel,5,fruit,apple.png,Glürre,Glürre,1,2157
44,2,2,23,1,CRel,1,animals,dog.png,Jasel,Jasel,1,983
44,2,2,24,2,CRel,8,human head,nose.png,Wirs,Wirs,1,723
45,4,1,1,2,CRel,6,furniture,chair.png,Berne,Berne,1,1331
45,4,1,2,3,UnRel,15,plants,flower.png,Milster,Milster,1,740
45,4,1,3,2,UnRel,1,animals,cow.png,Ploft,Ploft,1,958
45,4,1,4,3,CRel,13,insects,butterfly.png,Wulge,Wulge,1,627
45,4,1,5,1,CRel,9,drinks,coffee.png,Nimse,Nimse,1,681
45,4,1,6,2,CRel,6,furniture,table.png,Rixt,Rixt,1,798
45,4,1,7,1,UnRel,12,shapes,circle.png,Trulf,Trulf,1,798
45,4,1,8,1,UnRel,8,human head,nose.png,Wirs,Wirs,1,731
45,4,1,9,3,UnRel,11,tableware,bowl.png,Glemp,Glemp,1,840
45,4,1,10,3,CRel,13,insects,fly.png,Gulch,Gulch,1,836
45,4,1,11,1,UnRel,3,vegetables,cucumber.png,Lepf,Lepf,1,1092
45,4,1,12,2,UnRel,7,transportation,train.png,Melg,Melg,1,1000
45,4,2,13,1,CRel,9,drinks,tea.png,Mönnel,Mönnel,1,757
45,4,2,14,1,UnRel,2,tools,pliers.png,Scholk,Scholk,1,702
45,4,2,15,3,UnRel,10,clothes,dress.png,Lanst,Lanst,1,719
45,4,2,16,3,CRel,13,insects,dragonfly.png,Schmorp,Schmorp,1,740
45,4,2,17,2,CRel,6,furniture,cupboard.png,Gremt,Gremt,1,2199
45,4,2,18,1,CRel,9,drinks,water.png,Dimst,Dimst,1,819
45,4,2,19,2,UnRel,5,fruit,orange.png,Amst,Amst,1,811
45,4,2,20,3,UnRel,4,musical instruments,piano.png,Mirge,Mirge,1,1302
45,4,2,21,2,UnRel,14,electronic devices,camera.png,Zolge,Zolge,1,920
45,4,2,22,3,CRel,13,insects,beetle.png,Lember,Lember,1,777
45,4,2,23,1,CRel,9,drinks,milk.png,Bift,Bift,1,857
45,4,2,24,2,CRel,6,furniture,bed.png,Kansche,Kansche,1,815
46,3,1,1,2,UnRel,10,clothes,skirt.png,Huspel,Huspel,1,697
46,3,1,2,3,CRel,12,shapes,diamond.png,Brähme,Brähne,0,564
46,3,1,3,3,UnRel,1,animals,dog.png,Jasel,Jasel,1,661
46,3,1,4,1,CRel,14,electronic devices,mobile.png,Rumfe,Rumfe,1,692
46,3,1,5,2,CRel,15,plants,tree.png,Gille,Gille,1,648
46,3,1,6,2,UnRel,9,drinks,water.png,Dimst,Dimst,1,763
46,3,1,7,2,UnRel,6,furniture,bed.png,Kansche,Kansche,1,799
46,3,1,8,1,UnRel,5,fruit,pear.png,Nork,Nork,1,723
46,3,1,9,1,CRel,14,electronic devices,camera.png,Zolge,Zolge,1,847
46,3,1,10,2,CRel,15,plants,moss.png,Zwilk,Zwilk,1,794
46,3,1,11,3,CRel,12,shapes,trapeze.png,Quippe,Quippe,1,750
46,3,1,12,2,UnRel,13,insects,dragonfly.png,Schmorp,Schmorp,1,818
46,3,2,13,3,UnRel,3,vegetables,potato.png,Rullner,Rullner,1,1064
46,3,2,14,3,UnRel,4,musical instruments,violin.png,Wimsch,Wimsch,1,728
46,3,2,15,2,CRel,15,plants,cactus.png,Derg,Derg,1,754
46,3,2,16,1,UnRel,7,transportation,ship.png,Pramme,Pramme,1,675
46,3,2,17,1,CRel,14,electronic devices,computer.png,Merst,Merst,1,1352
46,3,2,18,3,UnRel,11,tableware,cup.png,Knirs,Knirs,1,807
46,3,2,19,3,CRel,12,shapes,circle.png,Trulf,Trulf,1,776
46,3,2,20,2,CRel,15,plants,flower.png,Milster,Milster,1,679
46,3,2,21,1,UnRel,8,human head,mouth.png,Zürme,Zürme,1,737
46,3,2,22,1,CRel,14,electronic devices,printer.png,Jersch,Jersch,1,529
46,3,2,23,1,UnRel,2,tools,saw.png,Klüffe,Klüffe,1,843
46,3,2,24,3,CRel,12,shapes,star.png,Prals,Prals,1,666
47,1,1,1,1,CRel,5,fruit,orange.png,Amst,Amst,1,731
47,1,1,2,2,UnRel,7,transportation,car.png,Wefer,Wefer,1,710
47,1,1,3,2,CRel,2,tools,hammer.png,Jund,Jund,1,815
47,1,1,4,3,CRel,4,musical instruments,violin.png,Wimsch,Wimsch,1,727
47,1,1,5,3,UnRel,8,human head,eye.png,Limfer,Limfer,1,752
47,1,1,6,1,CRel,5,fruit,pear.png,Nork,Nork,1,664
47,1,1,7,1,UnRel,15,plants,tree.png,Gille,Gille,1,803
47,1,1,8,3,UnRel,11,tableware,plate.png,Schrenge,Schrenge,1,689
47,1,1,9,3,CRel,4,musical instruments,drum.png,Fente,Fente,1,694
47,1,1,10,2,CRel,2,tools,saw.png,Klüffe,Klüffe,1,803
47,1,1,11,1,CRel,5,fruit,banana.png,Limme,Limme,1,807
47,1,1,12,1,UnRel,9,drinks,tea.png,Mönnel,Mönnel,1,787
47,1,2,13,1,UnRel,6,furniture,table.png,Rixt,Rixt,1,719
47,1,2,14,2,UnRel,1,animals,cat.png,Marp,Marp,1,631
47,1,2,15,3,CRel,4,musical instruments,guitar.png,Zort,Zort,1,1100
47,1,2,16,2,UnRel,14,electronic devices,mobile.png,Rumfe,Rumfe,1,748
47,1,2,17,3,UnRel,12,shapes,diamond.png,Brähme,Brähme,1,668
47,1,2,18,2,UnRel,10,clothes,trousers.png,Glienst,Glienst,1,731
47,1,2,19,2,CRel,2,tools,ax.png,Flipse,Flipse,1,761
47,1,2,20,1,CRel,5,fruit,apple.png,Glürre,Glürre,1,752
47,1,2,21,3,UnRel,3,vegetables,onion.png,Troschel,Troschel,1,777
47,1,2,22,1,UnRel,13,insects,butterfly.png,Wulge,Wulge,1,656
47,1,2,23,3,CRel,4,musical instruments,piano.png,Mirge,Mirge,1,681
47,1,2,24,2,CRel,2,tools,pliers.png,Scholk,Scholk,1,619
48,5,1,1,3,CRel,10,clothes,dress.png,Lanst,Lanst,1,818
48,5,1,2,2,CRel,3,vegetables,onion.png,Troschel,Troschel,1,759
48,5,1,3,1,UnRel,4,musical instruments,drum.png,Fente,Fente,1,750
48,5,1,4,1,CRel,7,transportation,train.png,Melg,Melg,1,885
48,5,1,5,1,UnRel,14,electronic devices,printer.png,Jersch,Jersch,1,759
48,5,1,6,3,UnRel,2,tools,ax.png,Flipse,Fli...Flipse,0,764
48,5,1,7,3,CRel,10,clothes,coat.png,Dilpe,Dilpe,1,1133
48,5,1,8,2,UnRel,13,insects,beetle.png,Lember,Lember,1,714
48,5,1,9,3,UnRel,8,human head,ear.png,Glutz,Glutz,1,1205
48,5,1,10,1,CRel,7,transportation,bus.png,Jorn,Jorn,1,795
48,5,1,11,2,CRel,3,vegetables,tomato.png,Schinz,Z...Äh...Schinz,0,975
48,5,1,12,3,CRel,10,clothes,trousers.png,Glienst,Glienst,1,666
48,5,2,13,2,UnRel,12,shapes,trapeze.png,Quippe,Quippe,1,777
48,5,2,14,2,UnRel,9,drinks,milk.png,Bift,Bift,1,1092
48,5,2,15,1,CRel,7,transportation,ship.png,Pramme,Pramme,1,588
48,5,2,16,2,CRel,3,vegetables,potato.png,Rullner,Rullner,1,809
48,5,2,17,3,CRel,10,clothes,skirt.png,Huspel,Huspel,1,782
48,5,2,18,1,UnRel,1,animals,horse.png,Rafke,Rafke,1,673
48,5,2,19,3,UnRel,5,fruit,banana.png,Limme,Limme,1,660
48,5,2,20,1,CRel,7,transportation,car.png,Wefer,Wefer,1,619
48,5,2,21,1,UnRel,15,plants,moss.png,Zwilk,Zwilk,1,687
48,5,2,22,2,CRel,3,vegetables,cucumber.png,Lepf,Lepf,1,552
48,5,2,23,3,UnRel,11,tableware,glass.png,Randel,Randel,1,714
48,5,2,24,2,UnRel,6,furniture,cupboard.png,Gremt,Gl...Gremt,0,759
49,2,1,1,3,CRel,11,tableware,bowl.png,Glemp,Glemp,1,813
49,2,1,2,1,CRel,1,animals,cat.png,Marp,Marp,1,709
49,2,1,3,1,UnRel,15,plants,cactus.png,Derg,Derg,1,975
49,2,1,4,2,CRel,8,human head,eye.png,Limfer,Limfer,1,948
49,2,1,5,2,UnRel,2,tools,hammer.png,Jund,Jund,1,714
49,2,1,6,2,UnRel,3,vegetables,tomato.png,Schinz,Schinz,1,736
49,2,1,7,3,CRel,11,tableware,glass.png,Randel,Randel,1,948
49,2,1,8,1,UnRel,7,transportation,bus.png,Jorn,Jorn,1,755
49,2,1,9,1,CRel,1,animals,horse.png,Rafke,Rafke,1,966
49,2,1,10,2,CRel,8,human head,ear.png,Glutz,Glutz,1,1304
49,2,1,11,1,UnRel,12,shapes,star.png,Prals,Prals,1,948
49,2,1,12,3,CRel,11,tableware,plate.png,Schrenge,Schrenge,1,1062
49,2,2,13,3,UnRel,6,furniture,chair.png,Berne,Berne,1,1128
49,2,2,14,2,UnRel,4,musical instruments,guitar.png,Zort,Zort,1,1083
49,2,2,15,3,UnRel,14,electronic devices,computer.png,Merst,Merst,1,894
49,2,2,16,1,UnRel,9,drinks,coffee.png,Nimse,Nimse,1,813
49,2,2,17,2,CRel,8,human head,mouth.png,Zürme,Zürme,1,687
49,2,2,18,1,CRel,1,animals,cow.png,Ploft,Ploft,1,962
49,2,2,19,3,UnRel,10,clothes,coat.png,Dilpe,Dilpe,1,1101
49,2,2,20,2,UnRel,13,insects,fly.png,Gulch,Gulch,1,845
49,2,2,21,3,CRel,11,tableware,cup.png,Knirs,Knirs,1,800
49,2,2,22,3,UnRel,5,fruit,apple.png,Glürre,Glürre,1,696
49,2,2,23,1,CRel,1,animals,dog.png,Jasel,Jasel,1,736
49,2,2,24,2,CRel,8,human head,nose.png,Wirs,Wirs,1,839
50,2,1,1,3,CRel,11,tableware,bowl.png,Glemp,Glemp,1,1403
50,2,1,2,1,CRel,1,animals,cat.png,Marp,Marp,1,755
50,2,1,3,1,UnRel,15,plants,cactus.png,Derg,Derg,1,1002
50,2,1,4,2,CRel,8,human head,eye.png,Limfer,Limfer,1,948
50,2,1,5,2,UnRel,2,tools,hammer.png,Jund,Jund,1,1056
50,2,1,6,2,UnRel,3,vegetables,tomato.png,Schinz,Schinz,1,1331
50,2,1,7,3,CRel,11,tableware,glass.png,Randel,Randel,1,800
50,2,1,8,1,UnRel,7,transportation,bus.png,Jorn,Jorn,1,1300
50,2,1,9,1,CRel,1,animals,horse.png,Rafke,Rafke,1,655
50,2,1,10,2,CRel,8,human head,ear.png,Glutz,Glutz,1,1390
50,2,1,11,1,UnRel,12,shapes,star.png,Prals,Prals,1,755
50,2,1,12,3,CRel,11,tableware,plate.png,Schrenge,Schrenge,1,1830
50,2,2,13,3,UnRel,6,furniture,chair.png,Berne,Berne,1,1439
50,2,2,14,2,UnRel,4,musical instruments,guitar.png,Zort,Zort,1,993
50,2,2,15,3,UnRel,14,electronic devices,computer.png,Merst,Merst,1,1011
50,2,2,16,1,UnRel,9,drinks,coffee.png,Nimse,Nimse,1,822
50,2,2,17,2,CRel,8,human head,mouth.png,Zürme,Zürme,1,804
50,2,2,18,1,CRel,1,animals,cow.png,Ploft,Ploft,1,917
50,2,2,19,3,UnRel,10,clothes,coat.png,Dilpe,Dilpe,1,1989
50,2,2,20,2,UnRel,13,insects,fly.png,Gulch,Gulch,1,1169
50,2,2,21,3,CRel,11,tableware,cup.png,Knirs,Knirs,1,953
50,2,2,22,3,UnRel,5,fruit,apple.png,Glürre,Glürre,1,1277
50,2,2,23,1,CRel,1,animals,dog.png,Jasel,Jasel,1,1070
50,2,2,24,2,CRel,8,human head,nose.png,Wirs,Wirs,1,988
51,3,1,1,2,UnRel,10,clothes,skirt.png,Huspel,Huspel,1,606
51,3,1,2,3,CRel,12,shapes,diamond.png,Brähme,Brähme,1,948
51,3,1,3,3,UnRel,1,animals,dog.png,Jasel,Jasel,1,534
51,3,1,4,1,CRel,14,electronic devices,mobile.png,Rumfe,Rumfe,1,583
51,3,1,5,2,CRel,15,plants,tree.png,Gille,Gille,1,682
51,3,1,6,2,UnRel,9,drinks,water.png,Dimst,Dimst,1,673
51,3,1,7,2,UnRel,6,furniture,bed.png,Kansche,Kansche,1,579
51,3,1,8,1,UnRel,5,fruit,pear.png,Nork,Nork,1,601
51,3,1,9,1,CRel,14,electronic devices,camera.png,Zolge,Zolge,1,642
51,3,1,10,2,CRel,15,plants,moss.png,Zwilk,Zwilk,1,687
51,3,1,11,3,CRel,12,shapes,trapeze.png,Quippe,Quippe,1,1313
51,3,1,12,2,UnRel,13,insects,dragonfly.png,Schmorp,Schmorp,1,641
51,3,2,13,3,UnRel,3,vegetables,potato.png,Rullner,Rullner,1,633
51,3,2,14,3,UnRel,4,musical instruments,violin.png,Wimsch,Wimsch,1,592
51,3,2,15,2,CRel,15,plants,cactus.png,Derg,Derg,1,746
51,3,2,16,1,UnRel,7,transportation,ship.png,Pramme,Pramme,1,773
51,3,2,17,1,CRel,14,electronic devices,computer.png,Merst,Merst,1,768
51,3,2,18,3,UnRel,11,tableware,cup.png,Knirs,Knirs,1,651
51,3,2,19,3,CRel,12,shapes,circle.png,Trulf,Trulf,1,867
51,3,2,20,2,CRel,15,plants,flower.png,Milster,Milster,1,741
51,3,2,21,1,UnRel,8,human head,mouth.png,Zürme,Zürme,1,606
51,3,2,22,1,CRel,14,electronic devices,printer.png,Jersch,Jersch,1,673
51,3,2,23,1,UnRel,2,tools,saw.png,Klüffe,Klüffe,1,642
51,3,2,24,3,CRel,12,shapes,star.png,Prals,Prals,1,1124
52,5,1,1,3,CRel,10,clothes,dress.png,Lanst,Lanst,1,1313
52,5,1,2,2,CRel,3,vegetables,onion.png,Troschel,Troschel,1,768
52,5,1,3,1,UnRel,4,musical instruments,drum.png,Fente,Fente,1,822
52,5,1,4,1,CRel,7,transportation,train.png,Melg,Melg,1,624
52,5,1,5,1,UnRel,14,electronic devices,printer.png,Jersch,Jersch,1,809
52,5,1,6,3,UnRel,2,tools,ax.png,Flipse,Flipse,1,800
52,5,1,7,3,CRel,10,clothes,coat.png,Dilpe,Dilpe,1,944
52,5,1,8,2,UnRel,13,insects,beetle.png,Lember,Lember,1,818
52,5,1,9,3,UnRel,8,human head,ear.png,Glutz,Glutz,1,773
52,5,1,10,1,CRel,7,transportation,bus.png,Jorn,Jorn,1,709
52,5,1,11,2,CRel,3,vegetables,tomato.png,Schinz,Schinz,1,723
52,5,1,12,3,CRel,10,clothes,trousers.png,Glienst,Glienst,1,1694
52,5,2,13,2,UnRel,12,shapes,trapeze.png,Quippe,Quippe,1,759
52,5,2,14,2,UnRel,9,drinks,milk.png,Bift,Bift,1,840
52,5,2,15,1,CRel,7,transportation,ship.png,Pramme,Pramme,1,804
52,5,2,16,2,CRel,3,vegetables,potato.png,Rullner,Rullner,1,1016
52,5,2,17,3,CRel,10,clothes,skirt.png,Huspel,Huspel,1,1101
52,5,2,18,1,UnRel,1,animals,horse.png,Rafke,Rafke,1,953
52,5,2,19,3,UnRel,5,fruit,banana.png,Limme,Limme,1,1034
52,5,2,20,1,CRel,7,transportation,car.png,Wefer,Wefer,1,836
52,5,2,21,1,UnRel,15,plants,moss.png,Zwilk,Zwilk,1,840
52,5,2,22,2,CRel,3,vegetables,cucumber.png,Lepf,Lepf,1,971
52,5,2,23,3,UnRel,11,tableware,glass.png,Randel,Randel,1,1313
52,5,2,24,2,UnRel,6,furniture,cupboard.png,Gremt,Gremt,1,845
53,1,1,1,1,CRel,5,fruit,orange.png,Amst,Amst,1,804
53,1,1,2,2,UnRel,7,transportation,car.png,Wefer,Wefer,1,673
53,1,1,3,2,CRel,2,tools,hammer.png,Jund,Jund,1,764
53,1,1,4,3,CRel,4,musical instruments,violin.png,Wimsch,Wimsch,1,718
53,1,1,5,3,UnRel,8,human head,eye.png,Limfer,Limfer,1,700
53,1,1,6,1,CRel,5,fruit,pear.png,Nork,Nork,1,709
53,1,1,7,1,UnRel,15,plants,tree.png,Gille,Gille,1,673
53,1,1,8,3,UnRel,11,tableware,plate.png,Schrenge,Schrenge,1,827
53,1,1,9,3,CRel,4,musical instruments,drum.png,Fente,Fente,1,664
53,1,1,10,2,CRel,2,tools,saw.png,Klüffe,Klüffe,1,1385
53,1,1,11,1,CRel,5,fruit,banana.png,Limme,Limme,1,885
53,1,1,12,1,UnRel,9,drinks,tea.png,Mönnel,Mönnel,1,722
53,1,2,13,1,UnRel,6,furniture,table.png,Rixt,Rixt,1,804
53,1,2,14,2,UnRel,1,animals,cat.png,Marp,Marp,1,633
53,1,2,15,3,CRel,4,musical instruments,guitar.png,Zort,Zort,1,1079
53,1,2,16,2,UnRel,14,electronic devices,mobile.png,Rumfe,Rumfe,1,741
53,1,2,17,3,UnRel,12,shapes,diamond.png,Brähme,Brähme,1,673
53,1,2,18,2,UnRel,10,clothes,trousers.png,Glienst,Glienst,1,673
53,1,2,19,2,CRel,2,tools,ax.png,Flipse,Flipse,1,1173
53,1,2,20,1,CRel,5,fruit,apple.png,Glürre,Glürre,1,746
53,1,2,21,3,UnRel,3,vegetables,onion.png,Troschel,Troschel,1,764
53,1,2,22,1,UnRel,13,insects,butterfly.png,Wulge,Wulge,1,764
53,1,2,23,3,CRel,4,musical instruments,piano.png,Mirge,Mirge,1,691
53,1,2,24,2,CRel,2,tools,pliers.png,Scholk,Scholk,1,1000
54,4,1,1,2,CRel,6,furniture,chair.png,Berne,Berne,1,926
54,4,1,2,3,UnRel,15,plants,flower.png,Milster,Milster,1,791
54,4,1,3,2,UnRel,1,animals,cow.png,Ploft,Ploft,1,975
54,4,1,4,3,CRel,13,insects,butterfly.png,Wulge,Wulge,1,912
54,4,1,5,1,CRel,9,drinks,coffee.png,Nimse,Nimse,1,894
54,4,1,6,2,CRel,6,furniture,table.png,Rixt,Rixt,1,2745
54,4,1,7,1,UnRel,12,shapes,circle.png,Trulf,Trulf,1,813
54,4,1,8,1,UnRel,8,human head,nose.png,Wirs,Wirs,1,818
54,4,1,9,3,UnRel,11,tableware,bowl.png,Glemp,Glemp,1,1300
54,4,1,10,3,CRel,13,insects,fly.png,Gulch,Gulch,1,1074
54,4,1,11,1,UnRel,3,vegetables,cucumber.png,Lepf,Lepf,1,822
54,4,1,12,2,UnRel,7,transportation,train.png,Melg,Melg,1,1019
54,4,2,13,1,CRel,9,drinks,tea.png,Mönnel,Mönnel,1,1273
54,4,2,14,1,UnRel,2,tools,pliers.png,Scholk,Scholk,1,939
54,4,2,15,3,UnRel,10,clothes,dress.png,Lanst,Lanst,1,890
54,4,2,16,3,CRel,13,insects,dragonfly.png,Schmorp,Schmorp,1,2299
54,4,2,17,2,CRel,6,furniture,cupboard.png,Gremt,Gremt,1,1011
54,4,2,18,1,CRel,9,drinks,water.png,Dimst,Dimst,1,1052
54,4,2,19,2,UnRel,5,fruit,orange.png,Amst,Amst,1,840
54,4,2,20,3,UnRel,4,musical instruments,piano.png,Mirge,Mirge,1,1399
54,4,2,21,2,UnRel,14,electronic devices,camera.png,Zolge,Zolge,1,858
54,4,2,22,3,CRel,13,insects,beetle.png,Lember,Lember,1,1002
54,4,2,23,1,CRel,9,drinks,milk.png,Bift,Bift,1,908
54,4,2,24,2,CRel,6,furniture,bed.png,Kansche,Kansche,1,858
55,4,1,1,2,CRel,6,furniture,chair.png,Berne,Berne,1,759
55,4,1,2,3,UnRel,15,plants,flower.png,Milster,Milster,1,718
55,4,1,3,2,UnRel,1,animals,cow.png,Ploft,Ploft,1,777
55,4,1,4,3,CRel,13,insects,butterfly.png,Wulge,Wulge,1,714
55,4,1,5,1,CRel,9,drinks,coffee.png,Nimse,Nimse,1,651
55,4,1,6,2,CRel,6,furniture,table.png,Rixt,Rixt,1,718
55,4,1,7,1,UnRel,12,shapes,circle.png,Trulf,Trulf,1,903
55,4,1,8,1,UnRel,8,human head,nose.png,Wirs,Wirs,1,696
55,4,1,9,3,UnRel,11,tableware,bowl.png,Glemp,Glemp,1,664
55,4,1,10,3,CRel,13,insects,fly.png,Gulch,Gulch,1,746
55,4,1,11,1,UnRel,3,vegetables,cucumber.png,Lepf,Lepf,1,687
55,4,1,12,2,UnRel,7,transportation,train.png,Melg,Melg,1,647
55,4,2,13,1,CRel,9,drinks,tea.png,Mönnel,Mönnel,1,723
55,4,2,14,1,UnRel,2,tools,pliers.png,Scholk,Scholk,1,642
55,4,2,15,3,UnRel,10,clothes,dress.png,Lanst,Lanst,1,764
55,4,2,16,3,CRel,13,insects,dragonfly.png,Schmorp,Schmorp,1,619
55,4,2,17,2,CRel,6,furniture,cupboard.png,Gremt,Gremt,1,962
55,4,2,18,1,CRel,9,drinks,water.png,Dimst,Dimst,1,818
55,4,2,19,2,UnRel,5,fruit,orange.png,Amst,Amst,1,845
55,4,2,20,3,UnRel,4,musical instruments,piano.png,Mirge,Mirge,1,746
55,4,2,21,2,UnRel,14,electronic devices,camera.png,Zolge,Zolge,1,827
55,4,2,22,3,CRel,13,insects,beetle.png,Lember,Lember,1,782
55,4,2,23,1,CRel,9,drinks,milk.png,Bift,Bift,1,867
55,4,2,24,2,CRel,6,furniture,bed.png,Kansche,Lansche,0,833
56,5,1,1,3,CRel,10,clothes,dress.png,Lanst,Lanst,1,1145
56,5,1,2,2,CRel,3,vegetables,onion.png,Troschel,Troschel,1,987
56,5,1,3,1,UnRel,4,musical instruments,drum.png,Fente,Fente,1,816
56,5,1,4,1,CRel,7,transportation,train.png,Melg,Melg,1,872
56,5,1,5,1,UnRel,14,electronic devices,printer.png,Jersch,Jersch,1,845
56,5,1,6,3,UnRel,2,tools,ax.png,Flipse,Flipse,1,777
56,5,1,7,3,CRel,10,clothes,coat.png,Dilpe,Dilpe,1,1038
56,5,1,8,2,UnRel,13,insects,beetle.png,Lember,Lember,1,840
56,5,1,9,3,UnRel,8,human head,ear.png,Glutz,Glutz,1,908
56,5,1,10,1,CRel,7,transportation,bus.png,Jorn,Jorn,1,897
56,5,1,11,2,CRel,3,vegetables,tomato.png,Schinz,Schinz,1,965
56,5,1,12,3,CRel,10,clothes,trousers.png,Glienst,Glienst,1,889
56,5,2,13,2,UnRel,12,shapes,trapeze.png,Quippe,Quippe,1,965
56,5,2,14,2,UnRel,9,drinks,milk.png,Bift,Bift,1,1070
56,5,2,15,1,CRel,7,transportation,ship.png,Pramme,Pramme,1,2152
56,5,2,16,2,CRel,3,vegetables,potato.png,Rullner,Rullner,1,1014
56,5,2,17,3,CRel,10,clothes,skirt.png,Huspel,Huspel,1,876
56,5,2,18,1,UnRel,1,animals,horse.png,Rafke,Rafke,1,818
56,5,2,19,3,UnRel,5,fruit,banana.png,Limme,Limme,1,1065
56,5,2,20,1,CRel,7,transportation,car.png,Wefer,Wefer,1,1091
56,5,2,21,1,UnRel,15,plants,moss.png,Zwilk,Zwilk,1,836
56,5,2,22,2,CRel,3,vegetables,cucumber.png,Lepf,Lepf,1,861
56,5,2,23,3,UnRel,11,tableware,glass.png,Randel,Randel,1,1043
56,5,2,24,2,UnRel,6,furniture,cupboard.png,Gremt,Gremt,1,1013
57,3,1,1,2,UnRel,10,clothes,skirt.png,Huspel,Huspel,1,673
57,3,1,2,3,CRel,12,shapes,diamond.png,Brähme,Brähme,1,1059
57,3,1,3,3,UnRel,1,animals,dog.png,Jasel,Jasel,1,740
57,3,1,4,1,CRel,14,electronic devices,mobile.png,Rumfe,Rumfe,1,930
57,3,1,5,2,CRel,15,plants,tree.png,Gille,Gille,1,795
57,3,1,6,2,UnRel,9,drinks,water.png,Dimst,Dimst,1,773
57,3,1,7,2,UnRel,6,furniture,bed.png,Kansche,Kansche,1,678
57,3,1,8,1,UnRel,5,fruit,pear.png,Nork,Nork,1,673
57,3,1,9,1,CRel,14,electronic devices,camera.png,Zolge,Zolge,1,813
57,3,1,10,2,CRel,15,plants,moss.png,Zwilk,Zwilk,1,798
57,3,1,11,3,CRel,12,shapes,trapeze.png,Quippe,Quippe,1,852
57,3,1,12,2,UnRel,13,insects,dragonfly.png,Schmorp,Schmorp,1,715
57,3,2,13,3,UnRel,3,vegetables,potato.png,Rullner,Rullner,1,848
57,3,2,14,3,UnRel,4,musical instruments,violin.png,Wimsch,Wimsch,1,773
57,3,2,15,2,CRel,15,plants,cactus.png,Derg,Derg,1,735
57,3,2,16,1,UnRel,7,transportation,ship.png,Pramme,Pramme,1,767
57,3,2,17,1,CRel,14,electronic devices,computer.png,Merst,Merst,1,899
57,3,2,18,3,UnRel,11,tableware,cup.png,Knirs,Knirs,1,705
57,3,2,19,3,CRel,12,shapes,circle.png,Trulf,Trulf,1,899
57,3,2,20,2,CRel,15,plants,flower.png,Milster,Milster,1,637
57,3,2,21,1,UnRel,8,human head,mouth.png,Zürme,Zürme,1,903
57,3,2,22,1,CRel,14,electronic devices,printer.png,Jersch,Jersch,1,771
57,3,2,23,1,UnRel,2,tools,saw.png,Klüffe,Klüffe,1,768
57,3,2,24,3,CRel,12,shapes,star.png,Prals,Prals,1,858
58,1,1,1,1,CRel,5,fruit,orange.png,Amst,Amst,1,516
58,1,1,2,2,UnRel,7,transportation,car.png,Wefer,Wefer,1,714
58,1,1,3,2,CRel,2,tools,hammer.png,Jund,Jund,1,786
58,1,1,4,3,CRel,4,musical instruments,violin.png,Wimsch,Wimsch,1,764
58,1,1,5,3,UnRel,8,human head,eye.png,Limfer,Limfer,1,885
58,1,1,6,1,CRel,5,fruit,pear.png,Nork,Nork,1,786
58,1,1,7,1,UnRel,15,plants,tree.png,Gille,Gille,1,732
58,1,1,8,3,UnRel,11,tableware,plate.png,Schrenge,Schrenge,1,750
58,1,1,9,3,CRel,4,musical instruments,drum.png,Fente,Fente,1,773
58,1,1,10,2,CRel,2,tools,saw.png,Klüffe,Klüffe,1,998
58,1,1,11,1,CRel,5,fruit,banana.png,Limme,Limme,1,1182
58,1,1,12,1,UnRel,9,drinks,tea.png,Mönnel,Mönnel,1,728
58,1,2,13,1,UnRel,6,furniture,table.png,Rixt,Rixt,1,741
58,1,2,14,2,UnRel,1,animals,cat.png,Marp,Marp,1,660
58,1,2,15,3,CRel,4,musical instruments,guitar.png,Zort,Zort,1,1309
58,1,2,16,2,UnRel,14,electronic devices,mobile.png,Rumfe,Rumfe,1,840
58,1,2,17,3,UnRel,12,shapes,diamond.png,Brähme,Brähme,1,813
58,1,2,18,2,UnRel,10,clothes,trousers.png,Glienst,Glienst,1,732
58,1,2,19,2,CRel,2,tools,ax.png,Flipse,Flipse,1,1020
58,1,2,20,1,CRel,5,fruit,apple.png,Glürre,Glürre,1,809
58,1,2,21,3,UnRel,3,vegetables,onion.png,Troschel,Troschel,1,777
58,1,2,22,1,UnRel,13,insects,butterfly.png,Wulge,Wulge,1,682
58,1,2,23,3,CRel,4,musical instruments,piano.png,Mirge,Mirge,1,1241
58,1,2,24,2,CRel,2,tools,pliers.png,Scholk,Scholk,1,709
59,4,1,1,2,CRel,6,furniture,chair.png,Berne,Berne,1,1282
59,4,1,2,3,UnRel,15,plants,flower.png,Milster,Milster,1,800
59,4,1,3,2,UnRel,1,animals,cow.png,Ploft,Ploft,1,1011
59,4,1,4,3,CRel,13,insects,butterfly.png,Wulge,Wulge,1,1146
59,4,1,5,1,CRel,9,drinks,coffee.png,Nimse,Nimse,1,836
59,4,1,6,2,CRel,6,furniture,table.png,Rixt,Rixt,1,989
59,4,1,7,1,UnRel,12,shapes,circle.png,Trulf,Trulf,1,1151
59,4,1,8,1,UnRel,8,human head,nose.png,Wirs,Wirs,1,764
59,4,1,9,3,UnRel,11,tableware,bowl.png,Glemp,Glemp,1,809
59,4,1,10,3,CRel,13,insects,fly.png,Gulch,Gulch,1,1552
59,4,1,11,1,UnRel,3,vegetables,cucumber.png,Lepf,Lepf,1,786
59,4,1,12,2,UnRel,7,transportation,train.png,Melg,Melg,1,1025
59,4,2,13,1,CRel,9,drinks,tea.png,Mönnel,Mönnel,1,759
59,4,2,14,1,UnRel,2,tools,pliers.png,Scholk,Scholk,1,741
59,4,2,15,3,UnRel,10,clothes,dress.png,Lanst,Lanst,1,777
59,4,2,16,3,CRel,13,insects,dragonfly.png,Schmorp,Schmorp,1,845
59,4,2,17,2,CRel,6,furniture,cupboard.png,Gremt,Gremst,0,1687
59,4,2,18,1,CRel,9,drinks,water.png,Dimst,Dimst,1,1309
59,4,2,19,2,UnRel,5,fruit,orange.png,Amst,Amst,1,827
59,4,2,20,3,UnRel,4,musical instruments,piano.png,Mirge,Mirge,1,1516
59,4,2,21,2,UnRel,14,electronic devices,camera.png,Zolge,Zolge,1,989
59,4,2,22,3,CRel,13,insects,beetle.png,Lember,Lember,1,903
59,4,2,23,1,CRel,9,drinks,milk.png,Bift,Bift,1,1106
59,4,2,24,2,CRel,6,furniture,bed.png,Kansche,Kansche,1,1013
60,2,1,1,3,CRel,11,tableware,bowl.png,Glemp,Gu....,0,2421
60,2,1,2,1,CRel,1,animals,cat.png,Marp,Merp,0,1457
60,2,1,3,1,UnRel,15,plants,cactus.png,Derg,Derg,1,971
60,2,1,4,2,CRel,8,human head,eye.png,Limfer,Limfer,1,998
60,2,1,5,2,UnRel,2,tools,hammer.png,Jund,Jund,1,926
60,2,1,6,2,UnRel,3,vegetables,tomato.png,Schinz,Schinz,1,1610
60,2,1,7,3,CRel,11,tableware,glass.png,Randel,Schrenge...Nicht,0,872
60,2,1,8,1,UnRel,7,transportation,bus.png,Jorn,Jorn,1,1191
60,2,1,9,1,CRel,1,animals,horse.png,Rafke,Rafke,1,935
60,2,1,10,2,CRel,8,human head,ear.png,Glutz,Glutz,1,2061
60,2,1,11,1,UnRel,12,shapes,star.png,Prals,Prals,1,1381
60,2,1,12,3,CRel,11,tableware,plate.png,Schrenge,Schrenge,1,1093
60,2,2,13,3,UnRel,6,furniture,chair.png,Berne,NA,0,-1
60,2,2,14,2,UnRel,4,musical instruments,guitar.png,Zort,Zorn,0,1151
60,2,2,15,3,UnRel,14,electronic devices,computer.png,Merst,Merst,1,1061
60,2,2,16,1,UnRel,9,drinks,coffee.png,Nimse,Nimse,1,998
60,2,2,17,2,CRel,8,human head,mouth.png,Zürme,Zürme,1,1092
60,2,2,18,1,CRel,1,animals,cow.png,Ploft,Ploft,1,1209
60,2,2,19,3,UnRel,10,clothes,coat.png,Dilpe,Dilpe,1,1894
60,2,2,20,2,UnRel,13,insects,fly.png,Gulch,Gulch,1,1245
60,2,2,21,3,CRel,11,tableware,cup.png,Knirs,Knirs,1,1250
60,2,2,22,3,UnRel,5,fruit,apple.png,Glürre,Glürre,1,1827
60,2,2,23,1,CRel,1,animals,dog.png,Jasel,Jasel,1,876
60,2,2,24,2,CRel,8,human head,nose.png,Wirs,Wirs,1,963
61,3,1,1,2,UnRel,10,clothes,skirt.png,Huspel,Huspel,1,583
61,3,1,2,3,CRel,12,shapes,diamond.png,Brähme,Brähme,1,628
61,3,1,3,3,UnRel,1,animals,dog.png,Jasel,Jasel,1,587
61,3,1,4,1,CRel,14,electronic devices,mobile.png,Rumfe,Rumfe,1,596
61,3,1,5,2,CRel,15,plants,tree.png,Gille,Gille,1,669
61,3,1,6,2,UnRel,9,drinks,water.png,Dimst,Dimst,1,628
61,3,1,7,2,UnRel,6,furniture,bed.png,Kansche,Kansche,1,606
61,3,1,8,1,UnRel,5,fruit,pear.png,Nork,Nork,1,718
61,3,1,9,1,CRel,14,electronic devices,camera.png,Zolge,Zolge,1,664
61,3,1,10,2,CRel,15,plants,moss.png,Zwilk,Zwilk,1,637
61,3,1,11,3,CRel,12,shapes,trapeze.png,Quippe,Quippe,1,1010
61,3,1,12,2,UnRel,13,insects,dragonfly.png,Schmorp,Schmorp,1,622
61,3,2,13,3,UnRel,3,vegetables,potato.png,Rullner,Rullner,1,623
61,3,2,14,3,UnRel,4,musical instruments,violin.png,Wimsch,Wimsch,1,628
61,3,2,15,2,CRel,15,plants,cactus.png,Derg,Derg,1,601
61,3,2,16,1,UnRel,7,transportation,ship.png,Pramme,Pramme,1,583
61,3,2,17,1,CRel,14,electronic devices,computer.png,Merst,Merst,1,759
61,3,2,18,3,UnRel,11,tableware,cup.png,Knirs,Knirs,1,646
61,3,2,19,3,CRel,12,shapes,circle.png,Trulf,Trulf,1,741
61,3,2,20,2,CRel,15,plants,flower.png,Milster,Milster,1,578
61,3,2,21,1,UnRel,8,human head,mouth.png,Zürme,Zürme,1,637
61,3,2,22,1,CRel,14,electronic devices,printer.png,Jersch,Je...Jersch,0,686
61,3,2,23,1,UnRel,2,tools,saw.png,Klüffe,Klüffe,1,1376
61,3,2,24,3,CRel,12,shapes,star.png,Prals,Prals,1,895
62,4,1,1,2,CRel,6,furniture,chair.png,Berne,Rixt...Äh...Berne,0,1187
62,4,1,2,3,UnRel,15,plants,flower.png,Milster,Milster,1,705
62,4,1,3,2,UnRel,1,animals,cow.png,Ploft,Ploft,1,723
62,4,1,4,3,CRel,13,insects,butterfly.png,Wulge,Wulge,1,782
62,4,1,5,1,CRel,9,drinks,coffee.png,Nimse,Nimse,1,714
62,4,1,6,2,CRel,6,furniture,table.png,Rixt,Rixt,1,845
62,4,1,7,1,UnRel,12,shapes,circle.png,Trulf,Trulf,1,741
62,4,1,8,1,UnRel,8,human head,nose.png,Wirs,Wirs,1,795
62,4,1,9,3,UnRel,11,tableware,bowl.png,Glemp,Glemp,1,714
62,4,1,10,3,CRel,13,insects,fly.png,Gulch,Gulch,1,773
62,4,1,11,1,UnRel,3,vegetables,cucumber.png,Lepf,Lepf,1,687
62,4,1,12,2,UnRel,7,transportation,train.png,Melg,Melg,1,870
62,4,2,13,1,CRel,9,drinks,tea.png,Mönnel,Mönnel,1,709
62,4,2,14,1,UnRel,2,tools,pliers.png,Scholk,Scholk,1,660
62,4,2,15,3,UnRel,10,clothes,dress.png,Lanst,Lanst,1,759
62,4,2,16,3,CRel,13,insects,dragonfly.png,Schmorp,Schmorp,1,1034
62,4,2,17,2,CRel,6,furniture,cupboard.png,Gremt,Gremt,1,1119
62,4,2,18,1,CRel,9,drinks,water.png,Dimst,Dimst,1,1543
62,4,2,19,2,UnRel,5,fruit,orange.png,Amst,Amst,1,750
62,4,2,20,3,UnRel,4,musical instruments,piano.png,Mirge,Mirge,1,867
62,4,2,21,2,UnRel,14,electronic devices,camera.png,Zolge,Zolge,1,480
62,4,2,22,3,CRel,13,insects,beetle.png,Lember,Lember,1,615
62,4,2,23,1,CRel,9,drinks,milk.png,Bift,Bift,1,1038
62,4,2,24,2,CRel,6,furniture,bed.png,Kansche,Kansche,1,666
63,1,1,1,1,CRel,5,fruit,orange.png,Amst,Amst,1,768
63,1,1,2,2,UnRel,7,transportation,car.png,Wefer,Wefer,1,601
63,1,1,3,2,CRel,2,tools,hammer.png,Jund,Jund,1,971
63,1,1,4,3,CRel,4,musical instruments,violin.png,Wimsch,Wimsch,1,800
63,1,1,5,3,UnRel,8,human head,eye.png,Limfer,Limfer,1,718
63,1,1,6,1,CRel,5,fruit,pear.png,Nork,Nork,1,673
63,1,1,7,1,UnRel,15,plants,tree.png,Gille,Gille,1,786
63,1,1,8,3,UnRel,11,tableware,plate.png,Schrenge,Schrenge,1,1052
63,1,1,9,3,CRel,4,musical instruments,drum.png,Fente,Fente,1,678
63,1,1,10,2,CRel,2,tools,saw.png,Klüffe,Klüffe,1,858
63,1,1,11,1,CRel,5,fruit,banana.png,Limme,Limme,1,755
63,1,1,12,1,UnRel,9,drinks,tea.png,Mönnel,Mönnel,1,1452
63,1,2,13,1,UnRel,6,furniture,table.png,Rixt,Rixt,1,809
63,1,2,14,2,UnRel,1,animals,cat.png,Marp,Marp,1,966
63,1,2,15,3,CRel,4,musical instruments,guitar.png,Zort,Zort,1,1002
63,1,2,16,2,UnRel,14,electronic devices,mobile.png,Rumfe,Rumfe,1,840
63,1,2,17,3,UnRel,12,shapes,diamond.png,Brähme,Brähme,1,840
63,1,2,18,2,UnRel,10,clothes,trousers.png,Glienst,Glienst,1,930
63,1,2,19,2,CRel,2,tools,ax.png,Flipse,Flipse,1,1133
63,1,2,20,1,CRel,5,fruit,apple.png,Glürre,Glürre,1,1088
63,1,2,21,3,UnRel,3,vegetables,onion.png,Troschel,Troschel,1,2254
63,1,2,22,1,UnRel,13,insects,butterfly.png,Wulge,Wulge,1,741
63,1,2,23,3,CRel,4,musical instruments,piano.png,Mirge,Mirge,1,791
63,1,2,24,2,CRel,2,tools,pliers.png,Scholk,Scholk,1,759
64,1,1,1,1,CRel,5,fruit,orange.png,Amst,Amst,1,795
64,1,1,2,2,UnRel,7,transportation,car.png,Wefer,Wefer,1,737
64,1,1,3,2,CRel,2,tools,hammer.png,Jund,Jund,1,746
64,1,1,4,3,CRel,4,musical instruments,violin.png,Wimsch,Wimsch,1,777
64,1,1,5,3,UnRel,8,human head,eye.png,Limfer,Limfer,1,700
64,1,1,6,1,CRel,5,fruit,pear.png,Nork,Nork,1,804
64,1,1,7,1,UnRel,15,plants,tree.png,Gille,Gille,1,804
64,1,1,8,3,UnRel,11,tableware,plate.png,Schrenge,Schrenge,1,691
64,1,1,9,3,CRel,4,musical instruments,drum.png,Fente,Fente,1,750
64,1,1,10,2,CRel,2,tools,saw.png,Klüffe,Klüffe,1,849
64,1,1,11,1,CRel,5,fruit,banana.png,Limme,Limme,1,899
64,1,1,12,1,UnRel,9,drinks,tea.png,Mönnel,Mönnel,1,703
64,1,2,13,1,UnRel,6,furniture,table.png,Rixt,Rixt,1,664
64,1,2,14,2,UnRel,1,animals,cat.png,Marp,Marp,1,723
64,1,2,15,3,CRel,4,musical instruments,guitar.png,Zort,Zort,1,1025
64,1,2,16,2,UnRel,14,electronic devices,mobile.png,Rumfe,Rumfe,1,786
64,1,2,17,3,UnRel,12,shapes,diamond.png,Brähme,Brähme,1,809
64,1,2,18,2,UnRel,10,clothes,trousers.png,Glienst,Glienst,1,885
64,1,2,19,2,CRel,2,tools,ax.png,Flipse,Flipse,1,1534
64,1,2,20,1,CRel,5,fruit,apple.png,Glürre,Glürre,1,822
64,1,2,21,3,UnRel,3,vegetables,onion.png,Troschel,Troschel,1,791
64,1,2,22,1,UnRel,13,insects,butterfly.png,Wulge,Wulge,1,840
64,1,2,23,3,CRel,4,musical instruments,piano.png,Mirge,Mirge,1,872
64,1,2,24,2,CRel,2,tools,pliers.png,Scholk,Scholk,1,635
65,1,1,1,1,CRel,5,fruit,orange.png,Amst,Amst,1,664
65,1,1,2,2,UnRel,7,transportation,car.png,Wefer,Wefer,1,1079
65,1,1,3,2,CRel,2,tools,hammer.png,Jund,Jund,1,1736
65,1,1,4,3,CRel,4,musical instruments,violin.png,Wimsch,Wimsch,1,1002
65,1,1,5,3,UnRel,8,human head,eye.png,Limfer,Limfer,1,759
65,1,1,6,1,CRel,5,fruit,pear.png,Nork,Nork,1,867
65,1,1,7,1,UnRel,15,plants,tree.png,Gille,Gille,1,764
65,1,1,8,3,UnRel,11,tableware,plate.png,Schrenge,Schrenge,1,755
65,1,1,9,3,CRel,4,musical instruments,drum.png,Fente,Fente,1,894
65,1,1,10,2,CRel,2,tools,saw.png,Klüffe,Klüffe,1,953
65,1,1,11,1,CRel,5,fruit,banana.png,Limme,Limme,1,840
65,1,1,12,1,UnRel,9,drinks,tea.png,Mönnel,Mönnel,1,845
65,1,2,13,1,UnRel,6,furniture,table.png,Rixt,Rixt,1,718
65,1,2,14,2,UnRel,1,animals,cat.png,Marp,Marp,1,926
65,1,2,15,3,CRel,4,musical instruments,guitar.png,Zort,Zor...,0,3480
65,1,2,16,2,UnRel,14,electronic devices,mobile.png,Rumfe,Rumfe,1,800
65,1,2,17,3,UnRel,12,shapes,diamond.png,Brähme,Brähme,1,777
65,1,2,18,2,UnRel,10,clothes,trousers.png,Glienst,Glienst,1,768
65,1,2,19,2,CRel,2,tools,ax.png,Flipse,Flipse,1,1169
65,1,2,20,1,CRel,5,fruit,apple.png,Glürre,Glürre,1,876
65,1,2,21,3,UnRel,3,vegetables,onion.png,Troschel,Troschel,1,732
65,1,2,22,1,UnRel,13,insects,butterfly.png,Wulge,Wulge,1,903
65,1,2,23,3,CRel,4,musical instruments,piano.png,Mirge,Mirge,1,863
65,1,2,24,2,CRel,2,tools,pliers.png,Scholk,Schscholk,0,926
66,1,1,1,1,CRel,5,fruit,orange.png,Amst,Amst,1,786
66,1,1,2,2,UnRel,7,transportation,car.png,Wefer,Wefer,1,764
66,1,1,3,2,CRel,2,tools,hammer.png,Jund,Jund,1,678
66,1,1,4,3,CRel,4,musical instruments,violin.png,Wimsch,Wimsch,1,800
66,1,1,5,3,UnRel,8,human head,eye.png,Limfer,Limfer,1,655
66,1,1,6,1,CRel,5,fruit,pear.png,Nork,Nork,1,777
66,1,1,7,1,UnRel,15,plants,tree.png,Gille,Gille,1,714
66,1,1,8,3,UnRel,11,tableware,plate.png,Schrenge,Schrenge,1,664
66,1,1,9,3,CRel,4,musical instruments,drum.png,Fente,Fente,1,1038
66,1,1,10,2,CRel,2,tools,saw.png,Klüffe,Klüffe,1,1421
66,1,1,11,1,CRel,5,fruit,banana.png,Limme,Lii...Li...Limme,0,682
66,1,1,12,1,UnRel,9,drinks,tea.png,Mönnel,Mönnel,1,800
66,1,2,13,1,UnRel,6,furniture,table.png,Rixt,Rixt,1,2052
66,1,2,14,2,UnRel,1,animals,cat.png,Marp,Marp,1,660
66,1,2,15,3,CRel,4,musical instruments,guitar.png,Zort,Zort,1,1214
66,1,2,16,2,UnRel,14,electronic devices,mobile.png,Rumfe,Rumfe,1,1948
66,1,2,17,3,UnRel,12,shapes,diamond.png,Brähme,Brähme,1,727
66,1,2,18,2,UnRel,10,clothes,trousers.png,Glienst,Glienst,1,773
66,1,2,19,2,CRel,2,tools,ax.png,Flipse,Flipse,1,1273
66,1,2,20,1,CRel,5,fruit,apple.png,Glürre,Glürre,1,872
66,1,2,21,3,UnRel,3,vegetables,onion.png,Troschel,Troschel,1,764
66,1,2,22,1,UnRel,13,insects,butterfly.png,Wulge,Wulge,1,741
66,1,2,23,3,CRel,4,musical instruments,piano.png,Mirge,Mirge,1,890
66,1,2,24,2,CRel,2,tools,pliers.png,Scholk,Scholk,1,951
67,1,1,1,1,CRel,5,fruit,orange.png,Amst,Amst,1,746
67,1,1,2,2,UnRel,7,transportation,car.png,Wefer,Wefer,1,678
67,1,1,3,2,CRel,2,tools,hammer.png,Jund,Jund,1,818
67,1,1,4,3,CRel,4,musical instruments,violin.png,Wimsch,Wimsch,1,682
67,1,1,5,3,UnRel,8,human head,eye.png,Limfer,Limfer,1,628
67,1,1,6,1,CRel,5,fruit,pear.png,Nork,Nork,1,1146
67,1,1,7,1,UnRel,15,plants,tree.png,Gille,Gille,1,718
67,1,1,8,3,UnRel,11,tableware,plate.png,Schrenge,Schrenge,1,588
67,1,1,9,3,CRel,4,musical instruments,drum.png,Fente,Fente,1,755
67,1,1,10,2,CRel,2,tools,saw.png,Klüffe,Klüffe,1,669
67,1,1,11,1,CRel,5,fruit,banana.png,Limme,Limme,1,885
67,1,1,12,1,UnRel,9,drinks,tea.png,Mönnel,Mönnel,1,641
67,1,2,13,1,UnRel,6,furniture,table.png,Rixt,Rixt,1,669
67,1,2,14,2,UnRel,1,animals,cat.png,Marp,Marp,1,592
67,1,2,15,3,CRel,4,musical instruments,guitar.png,Zort,Zort,1,714
67,1,2,16,2,UnRel,14,electronic devices,mobile.png,Rumfe,Rumfe,1,673
67,1,2,17,3,UnRel,12,shapes,diamond.png,Brähme,Brähme,1,691
67,1,2,18,2,UnRel,10,clothes,trousers.png,Glienst,Glienst,1,606
67,1,2,19,2,CRel,2,tools,ax.png,Flipse,Flipse,1,511
67,1,2,20,1,CRel,5,fruit,apple.png,Glürre,Glürre,1,809
67,1,2,21,3,UnRel,3,vegetables,onion.png,Troschel,Troschel,1,543
67,1,2,22,1,UnRel,13,insects,butterfly.png,Wulge,Wulge,1,678
67,1,2,23,3,CRel,4,musical instruments,piano.png,Mirge,Mirge,1,655
67,1,2,24,2,CRel,2,tools,pliers.png,Scholk,Scholk,1,653
68,1,1,1,1,CRel,5,fruit,orange.png,Amst,Amst,1,822
68,1,1,2,2,UnRel,7,transportation,car.png,Wefer,Wefer,1,791
68,1,1,3,2,CRel,2,tools,hammer.png,Jund,Jund,1,849
68,1,1,4,3,CRel,4,musical instruments,violin.png,Wimsch,Wimsch,1,1016
68,1,1,5,3,UnRel,8,human head,eye.png,Limfer,Limfer,1,903
68,1,1,6,1,CRel,5,fruit,pear.png,Nork,Nork,1,1079
68,1,1,7,1,UnRel,15,plants,tree.png,Gille,Gille,1,845
68,1,1,8,3,UnRel,11,tableware,plate.png,Schrenge,Schrenge,1,782
68,1,1,9,3,CRel,4,musical instruments,drum.png,Fente,Fente,1,1191
68,1,1,10,2,CRel,2,tools,saw.png,Klüffe,Klüffe,1,1083
68,1,1,11,1,CRel,5,fruit,banana.png,Limme,Limme,1,840
68,1,1,12,1,UnRel,9,drinks,tea.png,Mönnel,Mönnel,1,1000
68,1,2,13,1,UnRel,6,furniture,table.png,Rixt,Rixt,1,921
68,1,2,14,2,UnRel,1,animals,cat.png,Marp,Marp,1,746
68,1,2,15,3,CRel,4,musical instruments,guitar.png,Zort,Zort,1,2029
68,1,2,16,2,UnRel,14,electronic devices,mobile.png,Rumfe,Rumfe,1,1331
68,1,2,17,3,UnRel,12,shapes,diamond.png,Brähme,Brähme,1,822
68,1,2,18,2,UnRel,10,clothes,trousers.png,Glienst,Glienst,1,809
68,1,2,19,2,CRel,2,tools,ax.png,Flipse,Flipse,1,1354
68,1,2,20,1,CRel,5,fruit,apple.png,Glürre,Glürre,1,962
68,1,2,21,3,UnRel,3,vegetables,onion.png,Troschel,Troschel,1,764
68,1,2,22,1,UnRel,13,insects,butterfly.png,Wulge,Wulge,1,854
68,1,2,23,3,CRel,4,musical instruments,piano.png,Mirge,Mirge,1,1300
68,1,2,24,2,CRel,2,tools,pliers.png,Scholk,Scholk,1,1000
69,1,1,1,1,CRel,5,fruit,orange.png,Amst,Amst,1,1273
69,1,1,2,2,UnRel,7,transportation,car.png,Wefer,Wefer,1,759
69,1,1,3,2,CRel,2,tools,hammer.png,Jund,Jund,1,935
69,1,1,4,3,CRel,4,musical instruments,violin.png,Wimsch,Wimsch,1,1133
69,1,1,5,3,UnRel,8,human head,eye.png,Limfer,Limfer,1,845
69,1,1,6,1,CRel,5,fruit,pear.png,Nork,Nork,1,1011
69,1,1,7,1,UnRel,15,plants,tree.png,Gille,Gille,1,935
69,1,1,8,3,UnRel,11,tableware,plate.png,Schrenge,Schrenge,1,908
69,1,1,9,3,CRel,4,musical instruments,drum.png,Fente,Fente,1,894
69,1,1,10,2,CRel,2,tools,saw.png,Klüffe,Klüffe,1,1444
69,1,1,11,1,CRel,5,fruit,banana.png,Limme,Limme,1,836
69,1,1,12,1,UnRel,9,drinks,tea.png,Mönnel,Mönnel,1,858
69,1,2,13,1,UnRel,6,furniture,table.png,Rixt,Rixt,1,930
69,1,2,14,2,UnRel,1,animals,cat.png,Marp,Marp,1,764
69,1,2,15,3,CRel,4,musical instruments,guitar.png,Zort,Zurt...Zort,0,1092
69,1,2,16,2,UnRel,14,electronic devices,mobile.png,Rumfe,Rumfe,1,993
69,1,2,17,3,UnRel,12,shapes,diamond.png,Brähme,Brähme,1,984
69,1,2,18,2,UnRel,10,clothes,trousers.png,Glienst,Glienst,1,957
69,1,2,19,2,CRel,2,tools,ax.png,Flipse,Flipse,1,1349
69,1,2,20,1,CRel,5,fruit,apple.png,Glürre,Glürre,1,939
69,1,2,21,3,UnRel,3,vegetables,onion.png,Troschel,Troschel,1,759
69,1,2,22,1,UnRel,13,insects,butterfly.png,Wulge,Wulge,1,926
69,1,2,23,3,CRel,4,musical instruments,piano.png,Mirge,Mirge,1,1097
69,1,2,24,2,CRel,2,tools,pliers.png,Scholk,Scholk,1,2790
70,1,1,1,1,CRel,5,fruit,orange.png,Amst,Amst,1,705
70,1,1,2,2,UnRel,7,transportation,car.png,Wefer,Wefer,1,773
70,1,1,3,2,CRel,2,tools,hammer.png,Jund,Jund,1,782
70,1,1,4,3,CRel,4,musical instruments,violin.png,Wimsch,Wimsch,1,1160
70,1,1,5,3,UnRel,8,human head,eye.png,Limfer,Limfer,1,750
70,1,1,6,1,CRel,5,fruit,pear.png,Nork,Nork,1,903
70,1,1,7,1,UnRel,15,plants,tree.png,Gille,Gille,1,791
70,1,1,8,3,UnRel,11,tableware,plate.png,Schrenge,Schrenge,1,872
70,1,1,9,3,CRel,4,musical instruments,drum.png,Fente,Fente,1,840
70,1,1,10,2,CRel,2,tools,saw.png,Klüffe,Klüffe,1,1133
70,1,1,11,1,CRel,5,fruit,banana.png,Limme,Limme,1,831
70,1,1,12,1,UnRel,9,drinks,tea.png,Mönnel,Mönnel,1,827
70,1,2,13,1,UnRel,6,furniture,table.png,Rixt,Rixt,1,759
70,1,2,14,2,UnRel,1,animals,cat.png,Marp,Marp,1,723
70,1,2,15,3,CRel,4,musical instruments,guitar.png,Zort,Zork...Zort...Zort,0,1209
70,1,2,16,2,UnRel,14,electronic devices,mobile.png,Rumfe,Rumfe,1,800
70,1,2,17,3,UnRel,12,shapes,diamond.png,Brähme,Brähme,1,682
70,1,2,18,2,UnRel,10,clothes,trousers.png,Glienst,Glienst,1,1056
70,1,2,19,2,CRel,2,tools,ax.png,Flipse,Flipse,1,827
70,1,2,20,1,CRel,5,fruit,apple.png,Glürre,Glürre,1,637
70,1,2,21,3,UnRel,3,vegetables,onion.png,Troschel,Troschel,1,813
70,1,2,22,1,UnRel,13,insects,butterfly.png,Wulge,Wulge,1,1016
70,1,2,23,3,CRel,4,musical instruments,piano.png,Mirge,Mirge,1,1047
70,1,2,24,2,CRel,2,tools,pliers.png,Scholk,Scholk,1,672
71,1,1,1,1,CRel,5,fruit,orange.png,Amst,Amst,1,782
71,1,1,2,2,UnRel,7,transportation,car.png,Wefer,Wefer,1,737
71,1,1,3,2,CRel,2,tools,hammer.png,Jund,Jund,1,786
71,1,1,4,3,CRel,4,musical instruments,violin.png,Wimsch,Wimsch,1,700
71,1,1,5,3,UnRel,8,human head,eye.png,Limfer,Limfer,1,687
71,1,1,6,1,CRel,5,fruit,pear.png,Nork,Nork,1,709
71,1,1,7,1,UnRel,15,plants,tree.png,Gille,Gille,1,687
71,1,1,8,3,UnRel,11,tableware,plate.png,Schrenge,Schrenge,1,768
71,1,1,9,3,CRel,4,musical instruments,drum.png,Fente,Fente,1,1043
71,1,1,10,2,CRel,2,tools,saw.png,Klüffe,Klüffe,1,759
71,1,1,11,1,CRel,5,fruit,banana.png,Limme,Limme,1,741
71,1,1,12,1,UnRel,9,drinks,tea.png,Mönnel,Mönnel,1,740
71,1,2,13,1,UnRel,6,furniture,table.png,Rixt,Rixt,1,601
71,1,2,14,2,UnRel,1,animals,cat.png,Marp,Marp,1,651
71,1,2,15,3,CRel,4,musical instruments,guitar.png,Zort,Zort,1,723
71,1,2,16,2,UnRel,14,electronic devices,mobile.png,Rumfe,Rumfe,1,786
71,1,2,17,3,UnRel,12,shapes,diamond.png,Brähme,Brähme,1,786
71,1,2,18,2,UnRel,10,clothes,trousers.png,Glienst,Glienst,1,773
71,1,2,19,2,CRel,2,tools,ax.png,Flipse,Flipse,1,1137
71,1,2,20,1,CRel,5,fruit,apple.png,Glürre,Glürre,1,831
71,1,2,21,3,UnRel,3,vegetables,onion.png,Troschel,Troschel,1,782
71,1,2,22,1,UnRel,13,insects,butterfly.png,Wulge,Wulge,1,696
71,1,2,23,3,CRel,4,musical instruments,piano.png,Mirge,Mirge,1,714
71,1,2,24,2,CRel,2,tools,pliers.png,Scholk,Scholk,1,808
